File: data/light_intensity/Photocurrent-M800.DTA
EXPLAIN
TAG	CHRONOA
TITLE	LABEL	Chronoamperometry Scan	Test &Identifier
DATE	LABEL	6/10/2025	Date
TIME	LABEL	16:14:45	Time
NOTES	NOTES	1	&Notes...

PSTAT	PSTAT	IFC5000-19505	Potentiostat
VPRESTEP	POTEN	0.00000E+000	F	Pre-step Voltage (V)
TPRESTEP	QUANT	1.00000E+000	Pre-step Delay &Time (s)
VSTEP1	POTEN	6.00000E-001	F	Step 1 Voltage (V)
TSTEP1	QUANT	3.20000E+002	Step 1 Time (s)
VSTEP2	POTEN	0.00000E+000	F	Step 2 Voltage (V)
TSTEP2	QUANT	0.00000E+000	Step 2 Time (s)
SAMPLETIME	QUANT	2.00000E-001	Sa&mple Period (s)
ILIMIT	QUANT	1.00000E+001	Limit &I (mA/cm^2)
IMODE	SELECTOR	0	I/E Range &Mode
IRANGE	QUANT	5.00000E+001	&Max Current (mA)
DECIMATE	TOGGLE	F	Decimate
AREA	QUANT	5.00000E-001	Electrode &Area (cm^2)
ELECTRODETYPE	SELECTOR	0	Electrode Type
STRIPPING	TOGGLE	F	Used for Stripping
EQDELAY	QUANT	1.00000E+000	Equil. &Time (s)
CONDIT	TWOPARAM	F	3.00000E+001	0.00000E+000	Conditionin&g	Time(s)	E(V)
DELAY	TWOPARAM	F	1.20000E+002	1.00000E-001	Init. De&lay	Time(s)	Stab.(mV/s)
IRCOMP	SELECTOR	0	IRCom&p
PFCOR	QUANT	1.00000E+001	PF Corr. (ohm)
SAMPLINGMODE	SELECTOR	2	Sampling &Mode
EOC	QUANT	0	Open Circuit (V)
PSTATMODEL	IQUANT	53	Pstat Model
PSTATSECTION	LABEL	IFC5000-19505	Pstat Section
PSTATSERIALNO	LABEL	19505	Pstat Serial Number
CTRLMODE	IQUANT	1	Control Mode
ELECTROMETER	IQUANT	0	RE=0 or CS=1
IESTAB	IQUANT	0	I/E Stability
CASPEED	IQUANT	4	Control Amp Speed
CONVENTION	IQUANT	1	Current Convention
ICHRANGE	IQUANT	2	Ich Range
ICHRANGEMODE	TOGGLE	T	Ich Auto Range
ICHOFFSETENABLE	TOGGLE	F	Ich Offset Enable
ICHOFFSET	QUANT	0	Ich Offset (V)
ICHFILTER	IQUANT	3	Ich Filter
VCHRANGE	IQUANT	2	Vch Range
VCHRANGEMODE	TOGGLE	F	Vch Auto Range
VCHOFFSETENABLE	TOGGLE	F	Vch Offset Enable
VCHOFFSET	QUANT	0	Vch Offset (V)
VCHFILTER	IQUANT	3	Vch Filter
IERANGELOWERLIMIT	IQUANT	7	I/E Range Lower Limit
IERANGEMODE	TOGGLE	T	I/E AutoRange
IERANGE	IQUANT	11	I/E Range
ACHSELECT	IQUANT	4	Ach Select
ACHRANGE	IQUANT	2	Ach Range
ACHOFFSETENABLE	TOGGLE	F	Ach Offset Enable
ACHOFFSET	QUANT	0	Ach Offset (V)
ACHFILTER	IQUANT	1	Ach Filter
SENSECABLEID	IQUANT	14	Sense Cable ID
PWRCABLEID	IQUANT	7	Power Cable ID
DCCALDATE	LABEL	8/27/2025	DC Calibration Date
ACCALDATE	LABEL	3/7/2024	AC Calibration Date
FRAMEWORKVERSION	LABEL	7.10.3	Framework Version
INSTRUMENTVERSION	LABEL	4.91	Instrument Version
COMMVERSION	LABEL	3.10	Communications Version
CPUPLDVERSION	LABEL	5.50	CPU PLD Version
CTRLPLDVERSION	LABEL	0.00	CTRL PLD Version
PSTATPLDVERSION	LABEL	0.00	PSTAT PLD Version
CURVE	TABLE	1605
	Pt	T	Vf	Im	Vu	Sig	Ach	IERange	Over	Temp
	#	s	V vs. Ref.	A	V	V	V	#	bits	deg C
	0	-0.8	8.60457E-005	1.81674E-005	0.00000E+000	-1.29551E-004	1.38473E-004	11	...........	1572.70
	4	0	6.60526E-005	-2.05306E-006	0.00000E+000	-1.29551E-004	1.22014E-004	7	...........	1571.74
	8	0.8	5.99941E-001	1.09933E-006	0.00000E+000	5.99882E-001	1.34671E-004	7	...........	1571.46
	12	1.6	5.99944E-001	8.01240E-007	0.00000E+000	5.99882E-001	1.37523E-004	7	...........	1571.46
	16	2.4	5.99930E-001	6.51126E-007	0.00000E+000	5.99882E-001	1.31369E-004	7	...........	1571.46
	20	3.2	5.99939E-001	5.51652E-007	0.00000E+000	5.99882E-001	1.19829E-004	7	...........	1571.46
	24	4	5.99943E-001	4.80505E-007	0.00000E+000	5.99882E-001	1.32753E-004	7	...........	1571.46
	28	4.8	5.99932E-001	4.31795E-007	0.00000E+000	5.99882E-001	1.30052E-004	7	...........	1571.46
	32	5.6	5.99951E-001	3.95095E-007	0.00000E+000	5.99882E-001	1.28234E-004	7	...........	1571.46
	36	6.4	5.99932E-001	3.57224E-007	0.00000E+000	5.99882E-001	1.18395E-004	7	...........	1571.46
	40	7.2	5.99948E-001	3.20977E-007	0.00000E+000	5.99882E-001	1.25799E-004	7	...........	1571.46
	44	8	5.99931E-001	2.88133E-007	0.00000E+000	5.99882E-001	1.28834E-004	7	...........	1571.46
	48	8.8	5.99936E-001	2.55906E-007	0.00000E+000	5.99882E-001	1.26816E-004	7	...........	1571.46
	52	9.6	5.99936E-001	2.33085E-007	0.00000E+000	5.99882E-001	1.36189E-004	7	...........	1571.46
	56	10.4	5.99934E-001	2.16028E-007	0.00000E+000	5.99882E-001	1.17361E-004	7	...........	1571.46
	60	11.2	5.99923E-001	1.98289E-007	0.00000E+000	5.99882E-001	1.28601E-004	7	...........	1571.46
	64	12	5.99930E-001	1.85678E-007	0.00000E+000	5.99882E-001	1.26733E-004	7	...........	1571.46
	68	12.8	5.99947E-001	1.75921E-007	0.00000E+000	5.99882E-001	1.28651E-004	7	...........	1571.46
	72	13.6	5.99930E-001	1.50100E-007	0.00000E+000	5.99882E-001	1.33287E-004	7	...........	1571.46
	76	14.4	5.99938E-001	1.50574E-007	0.00000E+000	5.99882E-001	1.34738E-004	7	...........	1571.46
	80	15.2	5.99945E-001	1.40506E-007	0.00000E+000	5.99882E-001	1.43226E-004	7	...........	1571.46
	84	16	5.99929E-001	1.35904E-007	0.00000E+000	5.99882E-001	1.36489E-004	7	...........	1571.46
	88	16.8	5.99933E-001	1.30359E-007	0.00000E+000	5.99882E-001	1.27317E-004	7	...........	1571.46
	92	17.6	5.99927E-001	1.25939E-007	0.00000E+000	5.99882E-001	1.41909E-004	7	...........	1571.46
	96	18.4	5.99956E-001	1.23127E-007	0.00000E+000	5.99882E-001	1.44977E-004	7	...........	1571.46
	100	19.2	5.99943E-001	1.19368E-007	0.00000E+000	5.99882E-001	1.14793E-004	7	...........	1571.46
	104	20	5.99937E-001	1.14809E-007	0.00000E+000	5.99882E-001	1.21830E-004	7	...........	1571.46
	108	20.8	5.99936E-001	1.11199E-007	0.00000E+000	5.99882E-001	1.23431E-004	7	...........	1571.46
	112	21.6	5.99942E-001	1.05987E-007	0.00000E+000	5.99882E-001	1.25833E-004	7	...........	1571.46
	116	22.4	5.99929E-001	1.02850E-007	0.00000E+000	5.99882E-001	1.43943E-004	7	...........	1571.46
	120	23.2	5.99925E-001	1.00443E-007	0.00000E+000	5.99882E-001	1.36923E-004	7	...........	1571.46
	124	24	5.99938E-001	9.87316E-008	0.00000E+000	5.99882E-001	1.29635E-004	7	...........	1571.46
	128	24.8	5.99919E-001	9.58079E-008	0.00000E+000	5.99882E-001	1.31636E-004	7	...........	1571.46
	132	25.6	5.99913E-001	9.38404E-008	0.00000E+000	5.99882E-001	1.13392E-004	7	...........	1571.46
	136	26.4	5.99951E-001	9.43278E-008	0.00000E+000	5.99882E-001	1.35188E-004	7	...........	1571.46
	140	27.2	5.99942E-001	8.29833E-008	0.00000E+000	5.99882E-001	1.24799E-004	7	...........	1571.46
	144	28	5.99933E-001	8.43277E-008	0.00000E+000	5.99882E-001	1.42359E-004	7	...........	1571.46
	148	28.8	5.99947E-001	8.33905E-008	0.00000E+000	5.99882E-001	1.31336E-004	7	...........	1571.46
	152	29.6	5.99940E-001	8.31071E-008	0.00000E+000	5.99882E-001	1.13175E-004	7	...........	1571.46
	156	30.4	5.99927E-001	8.22417E-008	0.00000E+000	5.99882E-001	1.25099E-004	7	...........	1571.46
	160	31.2	5.99928E-001	2.64910E-007	0.00000E+000	5.99882E-001	1.23481E-004	7	...........	1571.46
	164	32	5.99933E-001	2.57955E-007	0.00000E+000	5.99882E-001	1.10573E-004	7	...........	1571.46
	168	32.8	5.99938E-001	2.54521E-007	0.00000E+000	5.99882E-001	1.25599E-004	7	...........	1571.46
	172	33.6	5.99921E-001	2.50789E-007	0.00000E+000	5.99882E-001	1.33354E-004	7	...........	1571.46
	176	34.4	5.99949E-001	2.49438E-007	0.00000E+000	5.99882E-001	1.32470E-004	7	...........	1571.46
	180	35.2	5.99934E-001	2.43996E-007	0.00000E+000	5.99882E-001	1.39607E-004	7	...........	1571.46
	184	36	5.99938E-001	2.43513E-007	0.00000E+000	5.99882E-001	1.27767E-004	7	...........	1571.46
	188	36.8	5.99936E-001	2.50839E-007	0.00000E+000	5.99882E-001	1.17978E-004	7	...........	1571.46
	192	37.6	5.99939E-001	2.38042E-007	0.00000E+000	5.99882E-001	1.29785E-004	7	...........	1571.46
	196	38.4	5.99938E-001	2.39473E-007	0.00000E+000	5.99882E-001	1.31553E-004	7	...........	1571.46
	200	39.2	5.99931E-001	2.40031E-007	0.00000E+000	5.99882E-001	1.13558E-004	7	...........	1571.46
	204	40	5.99927E-001	2.37399E-007	0.00000E+000	5.99882E-001	1.15643E-004	7	...........	1571.46
	208	40.8	5.99939E-001	2.41339E-007	0.00000E+000	5.99882E-001	1.36439E-004	7	...........	1571.46
	212	41.6	5.99930E-001	2.34609E-007	0.00000E+000	5.99882E-001	1.13475E-004	7	...........	1571.46
	216	42.4	5.99930E-001	2.35041E-007	0.00000E+000	5.99882E-001	1.38357E-004	7	...........	1571.46
	220	43.2	5.99951E-001	2.37087E-007	0.00000E+000	5.99882E-001	1.35805E-004	7	...........	1571.46
	224	44	5.99941E-001	2.32727E-007	0.00000E+000	5.99882E-001	1.36873E-004	7	...........	1571.46
	228	44.8	5.99929E-001	2.33645E-007	0.00000E+000	5.99882E-001	1.22847E-004	7	...........	1571.46
	232	45.6	5.99919E-001	2.28808E-007	0.00000E+000	5.99882E-001	1.34554E-004	7	...........	1571.46
	236	46.4	5.99936E-001	2.30325E-007	0.00000E+000	5.99882E-001	1.35939E-004	7	...........	1571.46
	240	47.2	5.99953E-001	2.30174E-007	0.00000E+000	5.99882E-001	1.40441E-004	7	...........	1571.46
	244	48	5.99935E-001	2.29662E-007	0.00000E+000	5.99882E-001	1.33470E-004	7	...........	1571.46
	248	48.8	5.99933E-001	2.30806E-007	0.00000E+000	5.99882E-001	1.25015E-004	7	...........	1571.46
	252	49.6	5.99931E-001	2.32159E-007	0.00000E+000	5.99882E-001	1.38307E-004	7	...........	1571.46
	256	50.4	5.99943E-001	2.25649E-007	0.00000E+000	5.99882E-001	1.30619E-004	7	...........	1571.46
	260	51.2	5.99937E-001	1.00251E-007	0.00000E+000	5.99882E-001	1.25632E-004	7	...........	1571.46
	264	52	5.99940E-001	9.09906E-008	0.00000E+000	5.99882E-001	1.31219E-004	7	...........	1571.46
	268	52.8	5.99935E-001	8.64266E-008	0.00000E+000	5.99882E-001	1.15276E-004	7	...........	1571.46
	272	53.6	5.99925E-001	8.50358E-008	0.00000E+000	5.99882E-001	1.14576E-004	7	...........	1571.46
	276	54.4	5.99923E-001	8.39268E-008	0.00000E+000	5.99882E-001	1.25082E-004	7	...........	1571.46
	280	55.2	5.99932E-001	8.13125E-008	0.00000E+000	5.99882E-001	1.17377E-004	7	...........	1571.46
	284	56	5.99929E-001	7.75260E-008	0.00000E+000	5.99882E-001	1.21930E-004	7	...........	1571.46
	288	56.8	5.99928E-001	7.58019E-008	0.00000E+000	5.99882E-001	1.41642E-004	7	...........	1571.46
	292	57.6	5.99929E-001	7.60709E-008	0.00000E+000	5.99882E-001	1.25349E-004	7	...........	1571.46
	296	58.4	5.99923E-001	7.39217E-008	0.00000E+000	5.99882E-001	1.19862E-004	7	...........	1571.46
	300	59.2	5.99934E-001	7.23247E-008	0.00000E+000	5.99882E-001	1.28167E-004	7	...........	1571.46
	304	60	5.99930E-001	7.14690E-008	0.00000E+000	5.99882E-001	1.33854E-004	7	...........	1571.46
	308	60.8	5.99911E-001	7.13580E-008	0.00000E+000	5.99882E-001	1.17578E-004	7	...........	1571.46
	312	61.6	5.99935E-001	7.05706E-008	0.00000E+000	5.99882E-001	1.28651E-004	7	...........	1571.46
	316	62.4	5.99937E-001	7.21020E-008	0.00000E+000	5.99882E-001	1.27617E-004	7	...........	1571.46
	320	63.2	5.99928E-001	6.99739E-008	0.00000E+000	5.99882E-001	1.26900E-004	7	...........	1571.46
	324	64	5.99906E-001	6.91580E-008	0.00000E+000	5.99882E-001	1.25065E-004	7	...........	1571.46
	328	64.8	5.99938E-001	6.92981E-008	0.00000E+000	5.99882E-001	1.29001E-004	7	...........	1571.46
	332	65.6	5.99950E-001	6.92003E-008	0.00000E+000	5.99882E-001	1.29018E-004	7	...........	1571.46
	336	66.4	5.99929E-001	7.14662E-008	0.00000E+000	5.99882E-001	1.37056E-004	7	...........	1571.46
	340	67.2	5.99940E-001	6.58991E-008	0.00000E+000	5.99882E-001	1.22430E-004	7	...........	1571.46
	344	68	5.99924E-001	6.63841E-008	0.00000E+000	5.99882E-001	1.27283E-004	7	...........	1571.46
	348	68.8	5.99956E-001	6.57425E-008	0.00000E+000	5.99882E-001	1.13425E-004	7	...........	1571.46
	352	69.6	5.99927E-001	6.59861E-008	0.00000E+000	5.99882E-001	1.35872E-004	7	...........	1571.46
	356	70.4	5.99931E-001	6.56621E-008	0.00000E+000	5.99882E-001	1.26450E-004	7	...........	1571.46
	360	71.2	5.99918E-001	2.11754E-007	0.00000E+000	5.99882E-001	1.32403E-004	7	...........	1571.46
	364	72	5.99937E-001	2.16583E-007	0.00000E+000	5.99882E-001	1.22631E-004	7	...........	1571.46
	368	72.8	5.99917E-001	2.15348E-007	0.00000E+000	5.99882E-001	1.22781E-004	7	...........	1571.46
	372	73.6	5.99946E-001	2.16173E-007	0.00000E+000	5.99882E-001	1.34421E-004	7	...........	1571.46
	376	74.4	5.99949E-001	2.16364E-007	0.00000E+000	5.99882E-001	1.20346E-004	7	...........	1571.46
	380	75.2	5.99956E-001	2.17644E-007	0.00000E+000	5.99882E-001	1.21230E-004	7	...........	1571.46
	384	76	5.99944E-001	2.22237E-007	0.00000E+000	5.99882E-001	1.41926E-004	7	...........	1571.46
	388	76.8	5.99928E-001	2.15771E-007	0.00000E+000	5.99882E-001	1.34238E-004	7	...........	1571.46
	392	77.6	5.99937E-001	2.16350E-007	0.00000E+000	5.99882E-001	1.26783E-004	7	...........	1571.46
	396	78.4	5.99940E-001	2.18343E-007	0.00000E+000	5.99882E-001	1.29618E-004	7	...........	1571.46
	400	79.2	5.99918E-001	2.18293E-007	0.00000E+000	5.99882E-001	1.14726E-004	7	...........	1571.46
	404	80	5.99946E-001	2.19132E-007	0.00000E+000	5.99882E-001	9.98669E-005	7	...........	1571.46
	408	80.8	5.99924E-001	2.23969E-007	0.00000E+000	5.99882E-001	1.31102E-004	7	...........	1571.46
	412	81.6	5.99925E-001	2.18819E-007	0.00000E+000	5.99882E-001	1.31036E-004	7	...........	1571.46
	416	82.4	5.99920E-001	2.18745E-007	0.00000E+000	5.99882E-001	1.21847E-004	7	...........	1571.46
	420	83.2	5.99916E-001	2.19742E-007	0.00000E+000	5.99882E-001	1.34221E-004	7	...........	1571.46
	424	84	5.99935E-001	2.19516E-007	0.00000E+000	5.99882E-001	1.13308E-004	7	...........	1571.46
	428	84.8	5.99922E-001	2.19796E-007	0.00000E+000	5.99882E-001	1.38257E-004	7	...........	1571.46
	432	85.6	5.99933E-001	2.19978E-007	0.00000E+000	5.99882E-001	1.15193E-004	7	...........	1571.46
	436	86.4	5.99918E-001	2.19656E-007	0.00000E+000	5.99882E-001	1.05954E-004	7	...........	1571.46
	440	87.2	5.99924E-001	2.19445E-007	0.00000E+000	5.99882E-001	1.21780E-004	7	...........	1571.46
	444	88	5.99936E-001	2.19200E-007	0.00000E+000	5.99882E-001	1.32670E-004	7	...........	1571.46
	448	88.8	5.99906E-001	2.19705E-007	0.00000E+000	5.99882E-001	1.28167E-004	7	...........	1571.46
	452	89.6	5.99963E-001	2.19292E-007	0.00000E+000	5.99882E-001	1.43043E-004	7	...........	1571.46
	456	90.4	5.99916E-001	2.19755E-007	0.00000E+000	5.99882E-001	1.26933E-004	7	...........	1571.46
	460	91.2	5.99923E-001	1.11372E-007	0.00000E+000	5.99882E-001	1.33637E-004	7	...........	1571.46
	464	92	5.99945E-001	8.83228E-008	0.00000E+000	5.99882E-001	1.14576E-004	7	...........	1571.46
	468	92.8	5.99925E-001	8.30326E-008	0.00000E+000	5.99882E-001	1.22230E-004	7	...........	1571.46
	472	93.6	5.99937E-001	8.02647E-008	0.00000E+000	5.99882E-001	1.12975E-004	7	...........	1571.46
	476	94.4	5.99932E-001	7.74439E-008	0.00000E+000	5.99882E-001	1.26249E-004	7	...........	1571.46
	480	95.2	5.99937E-001	7.60427E-008	0.00000E+000	5.99882E-001	1.19912E-004	7	...........	1571.46
	484	96	5.99925E-001	7.43057E-008	0.00000E+000	5.99882E-001	1.31503E-004	7	...........	1571.46
	488	96.8	5.99938E-001	7.27860E-008	0.00000E+000	5.99882E-001	1.06788E-004	7	...........	1571.46
	492	97.6	5.99947E-001	7.25499E-008	0.00000E+000	5.99882E-001	1.32487E-004	7	...........	1571.46
	496	98.4	5.99914E-001	7.07236E-008	0.00000E+000	5.99882E-001	1.22781E-004	7	...........	1571.46
	500	99.2	5.99936E-001	6.92077E-008	0.00000E+000	5.99882E-001	1.12141E-004	7	...........	1571.46
	504	100	5.99944E-001	6.91363E-008	0.00000E+000	5.99882E-001	1.16694E-004	7	...........	1571.46
	508	100.8	5.99916E-001	6.88554E-008	0.00000E+000	5.99882E-001	1.21480E-004	7	...........	1571.46
	512	101.6	5.99926E-001	6.88482E-008	0.00000E+000	5.99882E-001	1.17561E-004	7	...........	1571.46
	516	102.4	5.99937E-001	6.79086E-008	0.00000E+000	5.99882E-001	1.38173E-004	7	...........	1571.46
	520	103.2	5.99922E-001	6.72467E-008	0.00000E+000	5.99882E-001	1.10573E-004	7	...........	1571.46
	524	104	5.99930E-001	6.86465E-008	0.00000E+000	5.99882E-001	1.16460E-004	7	...........	1571.46
	528	104.8	5.99944E-001	6.85446E-008	0.00000E+000	5.99882E-001	1.36522E-004	7	...........	1571.46
	532	105.6	5.99948E-001	6.87108E-008	0.00000E+000	5.99882E-001	1.27517E-004	7	...........	1571.46
	536	106.4	5.99938E-001	6.84372E-008	0.00000E+000	5.99882E-001	1.14092E-004	7	...........	1571.46
	540	107.2	5.99946E-001	6.85920E-008	0.00000E+000	5.99882E-001	1.42059E-004	7	...........	1571.46
	544	108	5.99925E-001	7.26226E-008	0.00000E+000	5.99882E-001	1.40141E-004	7	...........	1571.46
	548	108.8	5.99928E-001	6.46014E-008	0.00000E+000	5.99882E-001	1.39908E-004	7	...........	1571.46
	552	109.6	5.99918E-001	6.41392E-008	0.00000E+000	5.99882E-001	1.14226E-004	7	...........	1571.46
	556	110.4	5.99921E-001	6.32886E-008	0.00000E+000	5.99882E-001	1.24932E-004	7	...........	1571.46
	560	111.2	5.99928E-001	1.54252E-007	0.00000E+000	5.99882E-001	1.31703E-004	7	...........	1571.46
	564	112	5.99940E-001	2.09125E-007	0.00000E+000	5.99882E-001	1.43627E-004	7	...........	1571.46
	568	112.8	5.99926E-001	2.09161E-007	0.00000E+000	5.99882E-001	1.17478E-004	7	...........	1571.46
	572	113.6	5.99931E-001	2.09667E-007	0.00000E+000	5.99882E-001	1.33771E-004	7	...........	1571.46
	576	114.4	5.99946E-001	2.11612E-007	0.00000E+000	5.99882E-001	1.15843E-004	7	...........	1571.46
	580	115.2	5.99937E-001	2.11879E-007	0.00000E+000	5.99882E-001	1.16460E-004	7	...........	1571.46
	584	116	5.99946E-001	2.13237E-007	0.00000E+000	5.99882E-001	1.20079E-004	7	...........	1571.46
	588	116.8	5.99930E-001	2.15144E-007	0.00000E+000	5.99882E-001	1.44977E-004	7	...........	1571.46
	592	117.6	5.99946E-001	2.15653E-007	0.00000E+000	5.99882E-001	1.06921E-004	7	...........	1571.46
	596	118.4	5.99932E-001	2.16524E-007	0.00000E+000	5.99882E-001	1.17344E-004	7	...........	1571.46
	600	119.2	5.99944E-001	2.17139E-007	0.00000E+000	5.99882E-001	1.19112E-004	7	...........	1571.46
	604	120	5.99926E-001	2.18259E-007	0.00000E+000	5.99882E-001	1.33504E-004	7	...........	1571.46
	608	120.8	5.99940E-001	2.18202E-007	0.00000E+000	5.99882E-001	1.31019E-004	7	...........	1571.46
	612	121.6	5.99944E-001	2.18524E-007	0.00000E+000	5.99882E-001	1.02835E-004	7	...........	1571.46
	616	122.4	5.99934E-001	2.17124E-007	0.00000E+000	5.99882E-001	1.28868E-004	7	...........	1571.46
	620	123.2	5.99932E-001	2.17081E-007	0.00000E+000	5.99882E-001	1.24448E-004	7	...........	1571.46
	624	124	5.99926E-001	2.18084E-007	0.00000E+000	5.99882E-001	1.26333E-004	7	...........	1571.46
	628	124.8	5.99912E-001	2.14849E-007	0.00000E+000	5.99882E-001	9.79324E-005	7	...........	1571.46
	632	125.6	5.99939E-001	2.17892E-007	0.00000E+000	5.99882E-001	1.19512E-004	7	...........	1571.46
	636	126.4	5.99937E-001	2.18754E-007	0.00000E+000	5.99882E-001	1.17711E-004	7	...........	1571.46
	640	127.2	5.99920E-001	2.24021E-007	0.00000E+000	5.99882E-001	1.21513E-004	7	...........	1571.46
	644	128	5.99904E-001	2.16365E-007	0.00000E+000	5.99882E-001	1.39791E-004	7	...........	1571.46
	648	128.8	5.99932E-001	2.15804E-007	0.00000E+000	5.99882E-001	1.26917E-004	7	...........	1571.46
	652	129.6	5.99934E-001	2.16928E-007	0.00000E+000	5.99882E-001	1.25149E-004	7	...........	1571.46
	656	130.4	5.99949E-001	2.17020E-007	0.00000E+000	5.99882E-001	1.14626E-004	7	...........	1571.46
	660	131.2	5.99916E-001	1.69554E-007	0.00000E+000	5.99882E-001	1.28434E-004	7	...........	1571.46
	664	132	5.99951E-001	8.77851E-008	0.00000E+000	5.99882E-001	1.21030E-004	7	...........	1571.46
	668	132.8	5.99930E-001	8.36392E-008	0.00000E+000	5.99882E-001	1.31719E-004	7	...........	1571.46
	672	133.6	5.99934E-001	8.13670E-008	0.00000E+000	5.99882E-001	1.21947E-004	7	...........	1571.46
	676	134.4	5.99938E-001	7.52196E-008	0.00000E+000	5.99882E-001	1.28284E-004	7	...........	1571.46
	680	135.2	5.99931E-001	7.62249E-008	0.00000E+000	5.99882E-001	1.30836E-004	7	...........	1571.46
	684	136	5.99916E-001	7.13256E-008	0.00000E+000	5.99882E-001	1.20779E-004	7	...........	1571.46
	688	136.8	5.99945E-001	6.87050E-008	0.00000E+000	5.99882E-001	8.74261E-005	7	...........	1571.46
	692	137.6	5.99921E-001	6.72671E-008	0.00000E+000	5.99882E-001	1.14709E-004	7	...........	1571.46
	696	138.4	5.99922E-001	6.61475E-008	0.00000E+000	5.99882E-001	1.41425E-004	7	...........	1571.46
	700	139.2	5.99938E-001	6.51267E-008	0.00000E+000	5.99882E-001	1.36205E-004	7	...........	1571.46
	704	140	5.99923E-001	6.40491E-008	0.00000E+000	5.99882E-001	1.06588E-004	7	...........	1571.46
	708	140.8	5.99931E-001	6.30137E-008	0.00000E+000	5.99882E-001	1.26600E-004	7	...........	1571.46
	712	141.6	5.99915E-001	6.15728E-008	0.00000E+000	5.99882E-001	1.02819E-004	7	...........	1571.46
	716	142.4	5.99937E-001	5.99773E-008	0.00000E+000	5.99882E-001	1.29702E-004	7	...........	1571.46
	720	143.2	5.99923E-001	5.95145E-008	0.00000E+000	5.99882E-001	1.16677E-004	7	...........	1571.46
	724	144	5.99925E-001	5.85120E-008	0.00000E+000	5.99882E-001	1.14693E-004	7	...........	1571.46
	728	144.8	5.99917E-001	5.74134E-008	0.00000E+000	5.99882E-001	1.24365E-004	7	...........	1571.46
	732	145.6	5.99925E-001	5.66269E-008	0.00000E+000	5.99882E-001	1.09856E-004	7	...........	1571.46
	736	146.4	5.99944E-001	5.66622E-008	0.00000E+000	5.99882E-001	1.09473E-004	7	...........	1571.46
	740	147.2	5.99920E-001	5.67850E-008	0.00000E+000	5.99882E-001	1.07421E-004	7	...........	1571.46
	744	148	5.99937E-001	5.83680E-008	0.00000E+000	5.99882E-001	1.29068E-004	7	...........	1571.46
	748	148.8	5.99946E-001	5.95683E-008	0.00000E+000	5.99882E-001	1.27200E-004	7	...........	1571.46
	752	149.6	5.99928E-001	5.94426E-008	0.00000E+000	5.99882E-001	1.36656E-004	7	...........	1571.46
	756	150.4	5.99942E-001	5.73074E-008	0.00000E+000	5.99882E-001	1.24899E-004	7	...........	1571.46
	760	151.2	5.99937E-001	7.66498E-008	0.00000E+000	5.99882E-001	1.20729E-004	7	...........	1571.46
	764	152	5.99940E-001	2.00415E-007	0.00000E+000	5.99882E-001	1.24031E-004	7	...........	1571.46
	768	152.8	5.99948E-001	2.03650E-007	0.00000E+000	5.99882E-001	1.34054E-004	7	...........	1571.46
	772	153.6	5.99943E-001	2.06001E-007	0.00000E+000	5.99882E-001	1.29651E-004	7	...........	1571.46
	776	154.4	5.99915E-001	2.09284E-007	0.00000E+000	5.99882E-001	1.22014E-004	7	...........	1571.46
	780	155.2	5.99895E-001	2.11889E-007	0.00000E+000	5.99882E-001	1.35355E-004	7	...........	1571.46
	784	156	5.99901E-001	2.14171E-007	0.00000E+000	5.99882E-001	1.18845E-004	7	...........	1571.46
	788	156.8	5.99936E-001	2.15533E-007	0.00000E+000	5.99882E-001	1.26666E-004	7	...........	1571.46
	792	157.6	5.99932E-001	2.16183E-007	0.00000E+000	5.99882E-001	1.37756E-004	7	...........	1571.46
	796	158.4	5.99927E-001	2.16054E-007	0.00000E+000	5.99882E-001	1.27984E-004	7	...........	1571.46
	800	159.2	5.99920E-001	2.17102E-007	0.00000E+000	5.99882E-001	1.18078E-004	7	...........	1571.46
	804	160	5.99938E-001	2.17531E-007	0.00000E+000	5.99882E-001	1.08839E-004	7	...........	1571.46
	808	160.8	5.99949E-001	2.17631E-007	0.00000E+000	5.99882E-001	1.26366E-004	7	...........	1571.46
	812	161.6	5.99944E-001	2.16916E-007	0.00000E+000	5.99882E-001	1.20829E-004	7	...........	1571.46
	816	162.4	5.99914E-001	2.16992E-007	0.00000E+000	5.99882E-001	1.27700E-004	7	...........	1571.46
	820	163.2	5.99917E-001	2.15995E-007	0.00000E+000	5.99882E-001	1.32086E-004	7	...........	1571.46
	824	164	5.99928E-001	2.15618E-007	0.00000E+000	5.99882E-001	1.20413E-004	7	...........	1571.46
	828	164.8	5.99941E-001	2.15484E-007	0.00000E+000	5.99882E-001	1.15927E-004	7	...........	1571.46
	832	165.6	5.99941E-001	2.14801E-007	0.00000E+000	5.99882E-001	1.16394E-004	7	...........	1571.46
	836	166.4	5.99925E-001	2.14566E-007	0.00000E+000	5.99882E-001	1.24899E-004	7	...........	1571.46
	840	167.2	5.99918E-001	2.14199E-007	0.00000E+000	5.99882E-001	1.31736E-004	7	...........	1571.46
	844	168	5.99935E-001	2.13091E-007	0.00000E+000	5.99882E-001	1.22581E-004	7	...........	1571.46
	848	168.8	5.99906E-001	2.12030E-007	0.00000E+000	5.99882E-001	1.34254E-004	7	...........	1571.46
	852	169.6	5.99932E-001	2.11949E-007	0.00000E+000	5.99882E-001	1.08539E-004	7	...........	1571.46
	856	170.4	5.99948E-001	2.12101E-007	0.00000E+000	5.99882E-001	1.17061E-004	7	...........	1571.46
	860	171.2	5.99919E-001	2.13573E-007	0.00000E+000	5.99882E-001	1.30886E-004	7	...........	1571.46
	864	172	5.99947E-001	8.88589E-008	0.00000E+000	5.99882E-001	1.17077E-004	7	...........	1571.46
	868	172.8	5.99908E-001	8.47529E-008	0.00000E+000	5.99882E-001	1.12958E-004	7	...........	1571.46
	872	173.6	5.99915E-001	8.39261E-008	0.00000E+000	5.99882E-001	9.81492E-005	7	...........	1571.46
	876	174.4	5.99933E-001	1.02939E-007	0.00000E+000	5.99882E-001	1.24332E-004	7	...........	1571.46
	880	175.2	5.99920E-001	8.81880E-008	0.00000E+000	5.99882E-001	1.25632E-004	7	...........	1571.46
	884	176	5.99938E-001	6.74997E-008	0.00000E+000	5.99882E-001	1.23364E-004	7	...........	1571.46
	888	176.8	5.99941E-001	6.98967E-008	0.00000E+000	5.99882E-001	1.26850E-004	7	...........	1571.46
	892	177.6	5.99937E-001	7.11751E-008	0.00000E+000	5.99882E-001	1.15326E-004	7	...........	1571.46
	896	178.4	5.99941E-001	9.90158E-008	0.00000E+000	5.99882E-001	1.38207E-004	7	...........	1571.46
	900	179.2	5.99927E-001	7.07099E-008	0.00000E+000	5.99882E-001	1.15993E-004	7	...........	1571.46
	904	180	5.99923E-001	6.08520E-008	0.00000E+000	5.99882E-001	1.29068E-004	7	...........	1571.46
	908	180.8	5.99923E-001	6.27726E-008	0.00000E+000	5.99882E-001	1.22647E-004	7	...........	1571.46
	912	181.6	5.99937E-001	6.40956E-008	0.00000E+000	5.99882E-001	1.21246E-004	7	...........	1571.46
	916	182.4	5.99920E-001	6.52934E-008	0.00000E+000	5.99882E-001	1.08055E-004	7	...........	1571.46
	920	183.2	5.99897E-001	9.27010E-008	0.00000E+000	5.99882E-001	1.12541E-004	7	...........	1571.46
	924	184	5.99923E-001	7.07082E-008	0.00000E+000	5.99882E-001	1.02335E-004	7	...........	1571.46
	928	184.8	5.99950E-001	5.59379E-008	0.00000E+000	5.99882E-001	1.25316E-004	7	...........	1571.46
	932	185.6	5.99934E-001	5.82860E-008	0.00000E+000	5.99882E-001	1.17544E-004	7	...........	1571.46
	936	186.4	5.99940E-001	5.89915E-008	0.00000E+000	5.99882E-001	1.30535E-004	7	...........	1571.46
	940	187.2	5.99942E-001	5.97375E-008	0.00000E+000	5.99882E-001	1.26933E-004	7	...........	1571.46
	944	188	5.99934E-001	6.17387E-008	0.00000E+000	5.99882E-001	1.27884E-004	7	...........	1571.46
	948	188.8	5.99927E-001	6.23152E-008	0.00000E+000	5.99882E-001	1.23398E-004	7	...........	1571.46
	952	189.6	5.99942E-001	7.75407E-008	0.00000E+000	5.99882E-001	1.37123E-004	7	...........	1571.46
	956	190.4	5.99942E-001	5.27324E-008	0.00000E+000	5.99882E-001	1.05620E-004	7	...........	1571.46
	960	191.2	5.99936E-001	5.37448E-008	0.00000E+000	5.99882E-001	1.02835E-004	7	...........	1571.46
	964	192	5.99933E-001	1.98917E-007	0.00000E+000	5.99882E-001	1.18912E-004	7	...........	1571.46
	968	192.8	5.99918E-001	2.00586E-007	0.00000E+000	5.99882E-001	8.81265E-005	7	...........	1571.46
	972	193.6	5.99937E-001	2.02637E-007	0.00000E+000	5.99882E-001	1.21830E-004	7	...........	1571.46
	976	194.4	5.99929E-001	2.03752E-007	0.00000E+000	5.99882E-001	1.25883E-004	7	...........	1571.46
	980	195.2	5.99920E-001	2.04483E-007	0.00000E+000	5.99882E-001	1.28101E-004	7	...........	1571.46
	984	196	5.99928E-001	2.06666E-007	0.00000E+000	5.99882E-001	1.38107E-004	7	...........	1571.46
	988	196.8	5.99935E-001	2.08028E-007	0.00000E+000	5.99882E-001	1.28101E-004	7	...........	1571.46
	992	197.6	5.99954E-001	2.09056E-007	0.00000E+000	5.99882E-001	1.32386E-004	7	...........	1571.46
	996	198.4	5.99943E-001	2.26162E-007	0.00000E+000	5.99882E-001	1.26666E-004	7	...........	1571.46
	1000	199.2	5.99895E-001	2.05218E-007	0.00000E+000	5.99882E-001	8.71259E-005	7	...........	1571.46
	1004	200	5.99940E-001	2.00906E-007	0.00000E+000	5.99882E-001	1.12991E-004	7	...........	1571.46
	1008	200.8	5.99925E-001	2.03260E-007	0.00000E+000	5.99882E-001	1.19012E-004	7	...........	1571.46
	1012	201.6	5.99940E-001	2.04303E-007	0.00000E+000	5.99882E-001	1.05087E-004	7	...........	1571.46
	1016	202.4	5.99931E-001	2.05405E-007	0.00000E+000	5.99882E-001	1.47129E-004	7	...........	1571.46
	1020	203.2	5.99908E-001	2.06653E-007	0.00000E+000	5.99882E-001	1.08922E-004	7	...........	1571.46
	1024	204	5.99942E-001	2.07211E-007	0.00000E+000	5.99882E-001	9.14618E-005	7	...........	1571.46
	1028	204.8	5.99948E-001	2.07653E-007	0.00000E+000	5.99882E-001	1.26917E-004	7	...........	1571.46
	1032	205.6	5.99945E-001	2.08105E-007	0.00000E+000	5.99882E-001	1.28000E-004	7	...........	1571.46
	1036	206.4	5.99929E-001	2.08235E-007	0.00000E+000	5.99882E-001	9.41968E-005	7	...........	1571.46
	1040	207.2	5.99935E-001	2.08890E-007	0.00000E+000	5.99882E-001	1.27050E-004	7	...........	1571.46
	1044	208	5.99944E-001	2.09285E-007	0.00000E+000	5.99882E-001	1.24265E-004	7	...........	1571.46
	1048	208.8	5.99953E-001	2.09607E-007	0.00000E+000	5.99882E-001	1.39224E-004	7	...........	1571.46
	1052	209.6	5.99929E-001	2.09162E-007	0.00000E+000	5.99882E-001	1.20162E-004	7	...........	1571.46
	1056	210.4	5.99929E-001	2.09148E-007	0.00000E+000	5.99882E-001	1.11941E-004	7	...........	1571.46
	1060	211.2	5.99932E-001	2.09131E-007	0.00000E+000	5.99882E-001	1.36622E-004	7	...........	1571.46
	1064	212	5.99931E-001	8.34102E-008	0.00000E+000	5.99882E-001	1.16727E-004	7	...........	1571.46
	1068	212.8	5.99947E-001	7.73947E-008	0.00000E+000	5.99882E-001	1.24081E-004	7	...........	1571.46
	1072	213.6	5.99937E-001	7.45078E-008	0.00000E+000	5.99882E-001	1.12858E-004	7	...........	1571.46
	1076	214.4	5.99933E-001	7.18224E-008	0.00000E+000	5.99882E-001	1.18511E-004	7	...........	1571.46
	1080	215.2	5.99924E-001	6.99733E-008	0.00000E+000	5.99882E-001	1.41592E-004	7	...........	1571.46
	1084	216	5.99940E-001	6.86237E-008	0.00000E+000	5.99882E-001	1.15343E-004	7	...........	1571.46
	1088	216.8	5.99925E-001	6.75067E-008	0.00000E+000	5.99882E-001	1.17327E-004	7	...........	1571.46
	1092	217.6	5.99947E-001	6.66047E-008	0.00000E+000	5.99882E-001	1.35055E-004	7	...........	1571.46
	1096	218.4	5.99944E-001	6.64023E-008	0.00000E+000	5.99882E-001	1.10073E-004	7	...........	1571.46
	1100	219.2	5.99940E-001	6.77895E-008	0.00000E+000	5.99882E-001	1.16977E-004	7	...........	1571.46
	1104	220	5.99931E-001	5.73254E-008	0.00000E+000	5.99882E-001	1.10924E-004	7	...........	1571.46
	1108	220.8	5.99926E-001	5.72190E-008	0.00000E+000	5.99882E-001	1.31786E-004	7	...........	1571.46
	1112	221.6	5.99935E-001	5.78447E-008	0.00000E+000	5.99882E-001	1.32753E-004	7	...........	1571.46
	1116	222.4	5.99952E-001	5.77929E-008	0.00000E+000	5.99882E-001	1.14025E-004	7	...........	1571.46
	1120	223.2	5.99930E-001	5.77094E-008	0.00000E+000	5.99882E-001	1.17711E-004	7	...........	1571.46
	1124	224	5.99934E-001	5.76400E-008	0.00000E+000	5.99882E-001	1.13575E-004	7	...........	1571.46
	1128	224.8	5.99921E-001	5.74724E-008	0.00000E+000	5.99882E-001	1.40208E-004	7	...........	1571.46
	1132	225.6	5.99938E-001	5.83942E-008	0.00000E+000	5.99882E-001	1.06237E-004	7	...........	1571.46
	1136	226.4	5.99935E-001	5.72071E-008	0.00000E+000	5.99882E-001	1.08405E-004	7	...........	1571.46
	1140	227.2	5.99933E-001	5.67131E-008	0.00000E+000	5.99882E-001	9.88329E-005	7	...........	1571.46
	1144	228	5.99932E-001	5.63483E-008	0.00000E+000	5.99882E-001	1.26850E-004	7	...........	1571.46
	1148	228.8	5.99915E-001	5.57179E-008	0.00000E+000	5.99882E-001	1.11257E-004	7	...........	1571.46
	1152	229.6	5.99923E-001	5.57499E-008	0.00000E+000	5.99882E-001	1.26583E-004	7	...........	1571.46
	1156	230.4	5.99927E-001	5.62985E-008	0.00000E+000	5.99882E-001	1.30202E-004	7	...........	1571.46
	1160	231.2	5.99937E-001	5.56312E-008	0.00000E+000	5.99882E-001	1.15860E-004	7	...........	1571.46
	1164	232	5.99911E-001	1.97780E-007	0.00000E+000	5.99882E-001	1.15743E-004	7	...........	1571.46
	1168	232.8	5.99945E-001	1.98970E-007	0.00000E+000	5.99882E-001	1.27367E-004	7	...........	1571.46
	1172	233.6	5.99923E-001	1.99392E-007	0.00000E+000	5.99882E-001	1.20696E-004	7	...........	1571.46
	1176	234.4	5.99945E-001	2.00001E-007	0.00000E+000	5.99882E-001	9.27459E-005	7	...........	1571.46
	1180	235.2	5.99933E-001	2.00434E-007	0.00000E+000	5.99882E-001	1.31136E-004	7	...........	1571.46
	1184	236	5.99933E-001	2.00731E-007	0.00000E+000	5.99882E-001	1.17127E-004	7	...........	1571.46
	1188	236.8	5.99947E-001	2.01747E-007	0.00000E+000	5.99882E-001	9.46971E-005	7	...........	1571.46
	1192	237.6	5.99930E-001	2.01917E-007	0.00000E+000	5.99882E-001	1.12508E-004	7	...........	1571.46
	1196	238.4	5.99939E-001	2.02378E-007	0.00000E+000	5.99882E-001	1.20413E-004	7	...........	1571.46
	1200	239.2	5.99944E-001	2.02825E-007	0.00000E+000	5.99882E-001	1.12841E-004	7	...........	1571.46
	1204	240	5.99954E-001	2.03809E-007	0.00000E+000	5.99882E-001	1.38907E-004	7	...........	1571.46
	1208	240.8	5.99909E-001	2.03629E-007	0.00000E+000	5.99882E-001	1.33587E-004	7	...........	1571.46
	1212	241.6	5.99923E-001	2.04184E-007	0.00000E+000	5.99882E-001	1.19862E-004	7	...........	1571.46
	1216	242.4	5.99932E-001	2.12709E-007	0.00000E+000	5.99882E-001	1.33187E-004	7	...........	1571.46
	1220	243.2	5.99925E-001	2.03761E-007	0.00000E+000	5.99882E-001	1.32870E-004	7	...........	1571.46
	1224	244	5.99919E-001	1.95884E-007	0.00000E+000	5.99882E-001	8.72927E-005	7	...........	1571.46
	1228	244.8	5.99932E-001	1.98018E-007	0.00000E+000	5.99882E-001	1.22430E-004	7	...........	1571.46
	1232	245.6	5.99924E-001	1.98680E-007	0.00000E+000	5.99882E-001	1.07421E-004	7	...........	1571.46
	1236	246.4	5.99934E-001	1.99093E-007	0.00000E+000	5.99882E-001	1.18411E-004	7	...........	1571.46
	1240	247.2	5.99932E-001	1.99495E-007	0.00000E+000	5.99882E-001	1.12691E-004	7	...........	1571.46
	1244	248	5.99934E-001	1.98312E-007	0.00000E+000	5.99882E-001	1.31386E-004	7	...........	1571.46
	1248	248.8	5.99942E-001	1.99401E-007	0.00000E+000	5.99882E-001	1.18161E-004	7	...........	1571.46
	1252	249.6	5.99920E-001	1.99986E-007	0.00000E+000	5.99882E-001	1.22180E-004	7	...........	1571.46
	1256	250.4	5.99928E-001	1.99875E-007	0.00000E+000	5.99882E-001	1.13158E-004	7	...........	1571.46
	1260	251.2	5.99928E-001	2.00411E-007	0.00000E+000	5.99882E-001	1.19562E-004	7	...........	1571.46
	1264	252	5.99947E-001	7.64578E-008	0.00000E+000	5.99882E-001	1.11507E-004	7	...........	1571.46
	1268	252.8	5.99948E-001	7.02715E-008	0.00000E+000	5.99882E-001	1.36039E-004	7	...........	1571.46
	1272	253.6	5.99929E-001	6.68443E-008	0.00000E+000	5.99882E-001	1.33020E-004	7	...........	1571.46
	1276	254.4	5.99933E-001	6.47263E-008	0.00000E+000	5.99882E-001	1.20463E-004	7	...........	1571.46
	1280	255.2	5.99946E-001	6.29836E-008	0.00000E+000	5.99882E-001	1.22080E-004	7	...........	1571.46
	1284	256	5.99926E-001	6.17955E-008	0.00000E+000	5.99882E-001	1.21697E-004	7	...........	1571.46
	1288	256.8	5.99932E-001	6.05644E-008	0.00000E+000	5.99882E-001	1.16494E-004	7	...........	1571.46
	1292	257.6	5.99926E-001	5.94005E-008	0.00000E+000	5.99882E-001	1.09022E-004	7	...........	1571.46
	1296	258.4	5.99927E-001	5.86506E-008	0.00000E+000	5.99882E-001	1.05420E-004	7	...........	1571.46
	1300	259.2	5.99933E-001	5.82054E-008	0.00000E+000	5.99882E-001	1.25682E-004	7	...........	1571.46
	1304	260	5.99898E-001	5.77195E-008	0.00000E+000	5.99882E-001	1.21180E-004	7	...........	1571.46
	1308	260.8	5.99925E-001	5.69220E-008	0.00000E+000	5.99882E-001	9.84327E-005	7	...........	1571.46
	1312	261.6	5.99922E-001	5.68473E-008	0.00000E+000	5.99882E-001	1.23648E-004	7	...........	1571.46
	1316	262.4	5.99919E-001	5.63118E-008	0.00000E+000	5.99882E-001	1.36339E-004	7	...........	1571.46
	1320	263.2	5.99910E-001	5.65387E-008	0.00000E+000	5.99882E-001	1.14009E-004	7	...........	1571.46
	1324	264	5.99929E-001	5.65316E-008	0.00000E+000	5.99882E-001	1.14909E-004	7	...........	1571.46
	1328	264.8	5.99923E-001	5.58744E-008	0.00000E+000	5.99882E-001	1.13725E-004	7	...........	1571.46
	1332	265.6	5.99919E-001	5.57076E-008	0.00000E+000	5.99882E-001	1.12424E-004	7	...........	1571.46
	1336	266.4	5.99909E-001	5.55504E-008	0.00000E+000	5.99882E-001	1.26716E-004	7	...........	1571.46
	1340	267.2	5.99922E-001	5.56616E-008	0.00000E+000	5.99882E-001	9.95000E-005	7	...........	1571.46
	1344	268	5.99929E-001	5.51955E-008	0.00000E+000	5.99882E-001	1.14843E-004	7	...........	1571.46
	1348	268.8	5.99922E-001	5.50328E-008	0.00000E+000	5.99882E-001	1.21280E-004	7	...........	1571.46
	1352	269.6	5.99942E-001	5.47762E-008	0.00000E+000	5.99882E-001	1.11340E-004	7	...........	1571.46
	1356	270.4	5.99948E-001	5.46108E-008	0.00000E+000	5.99882E-001	1.08656E-004	7	...........	1571.46
	1360	271.2	5.99935E-001	5.46107E-008	0.00000E+000	5.99882E-001	1.29635E-004	7	...........	1571.46
	1364	272	5.99942E-001	1.95315E-007	0.00000E+000	5.99882E-001	1.05954E-004	7	...........	1571.46
	1368	272.8	5.99952E-001	1.96700E-007	0.00000E+000	5.99882E-001	1.15310E-004	7	...........	1571.46
	1372	273.6	5.99928E-001	1.96990E-007	0.00000E+000	5.99882E-001	1.23765E-004	7	...........	1571.46
	1376	274.4	5.99920E-001	1.97796E-007	0.00000E+000	5.99882E-001	1.31136E-004	7	...........	1571.46
	1380	275.2	5.99931E-001	1.98174E-007	0.00000E+000	5.99882E-001	1.35572E-004	7	...........	1571.46
	1384	276	5.99933E-001	1.98598E-007	0.00000E+000	5.99882E-001	1.26933E-004	7	...........	1571.46
	1388	276.8	5.99940E-001	1.98947E-007	0.00000E+000	5.99882E-001	1.23581E-004	7	...........	1571.46
	1392	277.6	5.99928E-001	1.99480E-007	0.00000E+000	5.99882E-001	1.11391E-004	7	...........	1571.46
	1396	278.4	5.99927E-001	2.00158E-007	0.00000E+000	5.99882E-001	1.11724E-004	7	...........	1571.46
	1400	279.2	5.99917E-001	2.00671E-007	0.00000E+000	5.99882E-001	1.25749E-004	7	...........	1571.46
	1404	280	5.99935E-001	2.01199E-007	0.00000E+000	5.99882E-001	1.10573E-004	7	...........	1571.46
	1408	280.8	5.99932E-001	2.01512E-007	0.00000E+000	5.99882E-001	1.14159E-004	7	...........	1571.46
	1412	281.6	5.99922E-001	2.01738E-007	0.00000E+000	5.99882E-001	1.29585E-004	7	...........	1571.46
	1416	282.4	5.99914E-001	2.01881E-007	0.00000E+000	5.99882E-001	1.25449E-004	7	...........	1571.46
	1420	283.2	5.99920E-001	2.01900E-007	0.00000E+000	5.99882E-001	1.25566E-004	7	...........	1571.46
	1424	284	5.99927E-001	2.02475E-007	0.00000E+000	5.99882E-001	1.21030E-004	7	...........	1571.46
	1428	284.8	5.99929E-001	2.02588E-007	0.00000E+000	5.99882E-001	1.11907E-004	7	...........	1571.46
	1432	285.6	5.99933E-001	2.02190E-007	0.00000E+000	5.99882E-001	1.13408E-004	7	...........	1571.46
	1436	286.4	5.99926E-001	2.02503E-007	0.00000E+000	5.99882E-001	1.06604E-004	7	...........	1571.46
	1440	287.2	5.99938E-001	2.02611E-007	0.00000E+000	5.99882E-001	1.03703E-004	7	...........	1571.46
	1444	288	5.99913E-001	2.03418E-007	0.00000E+000	5.99882E-001	1.29952E-004	7	...........	1571.46
	1448	288.8	5.99912E-001	2.03657E-007	0.00000E+000	5.99882E-001	1.12658E-004	7	...........	1571.46
	1452	289.6	5.99942E-001	2.03700E-007	0.00000E+000	5.99882E-001	1.06971E-004	7	...........	1571.46
	1456	290.4	5.99931E-001	2.03756E-007	0.00000E+000	5.99882E-001	1.18228E-004	7	...........	1571.46
	1460	291.2	5.99923E-001	2.03994E-007	0.00000E+000	5.99882E-001	9.62481E-005	7	...........	1571.46
	1464	292	5.99905E-001	8.10683E-008	0.00000E+000	5.99882E-001	1.02585E-004	7	...........	1571.46
	1468	292.8	5.99920E-001	7.36835E-008	0.00000E+000	5.99882E-001	1.23064E-004	7	...........	1571.46
	1472	293.6	5.99939E-001	6.99275E-008	0.00000E+000	5.99882E-001	1.29251E-004	7	...........	1571.46
	1476	294.4	5.99925E-001	6.74361E-008	0.00000E+000	5.99882E-001	1.25516E-004	7	...........	1571.46
	1480	295.2	5.99907E-001	6.56929E-008	0.00000E+000	5.99882E-001	1.11757E-004	7	...........	1571.46
	1484	296	5.99918E-001	6.42052E-008	0.00000E+000	5.99882E-001	1.26716E-004	7	...........	1571.46
	1488	296.8	5.99941E-001	6.28763E-008	0.00000E+000	5.99882E-001	1.16894E-004	7	...........	1571.46
	1492	297.6	5.99924E-001	6.16396E-008	0.00000E+000	5.99882E-001	1.06171E-004	7	...........	1571.46
	1496	298.4	5.99927E-001	6.09492E-008	0.00000E+000	5.99882E-001	1.00267E-004	7	...........	1571.46
	1500	299.2	5.99929E-001	6.02032E-008	0.00000E+000	5.99882E-001	1.02385E-004	7	...........	1571.46
	1504	300	5.99922E-001	5.91153E-008	0.00000E+000	5.99882E-001	1.24115E-004	7	...........	1571.46
	1508	300.8	5.99920E-001	5.89124E-008	0.00000E+000	5.99882E-001	1.08839E-004	7	...........	1571.46
	1512	301.6	5.99917E-001	5.88104E-008	0.00000E+000	5.99882E-001	9.21289E-005	7	...........	1571.46
	1516	302.4	5.99953E-001	5.79908E-008	0.00000E+000	5.99882E-001	1.30385E-004	7	...........	1571.46
	1520	303.2	5.99935E-001	5.73567E-008	0.00000E+000	5.99882E-001	1.20162E-004	7	...........	1571.46
	1524	304	5.99926E-001	5.68561E-008	0.00000E+000	5.99882E-001	1.21063E-004	7	...........	1571.46
	1528	304.8	5.99936E-001	5.69430E-008	0.00000E+000	5.99882E-001	1.07305E-004	7	...........	1571.46
	1532	305.6	5.99945E-001	5.68603E-008	0.00000E+000	5.99882E-001	1.06838E-004	7	...........	1571.46
	1536	306.4	5.99914E-001	5.63892E-008	0.00000E+000	5.99882E-001	1.13775E-004	7	...........	1571.46
	1540	307.2	5.99935E-001	5.62158E-008	0.00000E+000	5.99882E-001	1.02352E-004	7	...........	1571.46
	1544	308	5.99939E-001	5.59859E-008	0.00000E+000	5.99882E-001	1.20179E-004	7	...........	1571.46
	1548	308.8	5.99916E-001	5.58385E-008	0.00000E+000	5.99882E-001	1.03619E-004	7	...........	1571.46
	1552	309.6	5.99907E-001	5.57233E-008	0.00000E+000	5.99882E-001	1.09840E-004	7	...........	1571.46
	1556	310.4	5.99924E-001	5.55331E-008	0.00000E+000	5.99882E-001	1.13959E-004	7	...........	1571.46
	1560	311.2	5.99941E-001	6.18824E-008	0.00000E+000	5.99882E-001	1.06704E-004	7	...........	1571.46
	1564	312	5.99934E-001	4.89659E-008	0.00000E+000	5.99882E-001	1.34771E-004	7	...........	1571.46
	1568	312.8	5.99934E-001	5.13112E-008	0.00000E+000	5.99882E-001	1.20263E-004	7	...........	1571.46
	1572	313.6	5.99929E-001	4.99358E-008	0.00000E+000	5.99882E-001	1.07421E-004	7	...........	1571.46
	1576	314.4	5.99942E-001	5.03834E-008	0.00000E+000	5.99882E-001	1.18578E-004	7	...........	1571.46
	1580	315.2	5.99906E-001	5.02054E-008	0.00000E+000	5.99882E-001	1.17811E-004	7	...........	1571.46
	1584	316	5.99937E-001	5.03757E-008	0.00000E+000	5.99882E-001	1.25732E-004	7	...........	1571.46
	1588	316.8	5.99930E-001	5.05529E-008	0.00000E+000	5.99882E-001	1.12274E-004	7	...........	1571.46
	1592	317.6	5.99935E-001	5.05223E-008	0.00000E+000	5.99882E-001	1.00617E-004	7	...........	1571.46
	1596	318.4	5.99923E-001	5.07624E-008	0.00000E+000	5.99882E-001	1.04019E-004	7	...........	1571.46
	1600	319.2	5.99931E-001	5.07304E-008	0.00000E+000	5.99882E-001	1.17594E-004	7	...........	1571.46
	1604	320	5.99928E-001	5.09414E-008	0.00000E+000	5.99882E-001	1.27200E-004	7	...........	1571.46