File: data/light_intensity/Photocurrent-M700.DTA
EXPLAIN
TAG	MULTI_STEP_CHRONOA
TITLE	LABEL	Chronoamperometry Scan	Test &Identifier
DATE	LABEL	18/9/2025	Date
TIME	LABEL	15:46:38	Time
PSTAT	PSTAT	IFC5000-19505	Potentiostat
NOTES	NOTES	1	&Notes...

AREA	QUANT	5.00000E-001	Sample &Area (cm^2)
ELECTRODETYPE	SELECTOR	0	Electrode Type
STRIPPING	TOGGLE	F	Used for Stripping
VSTEP0	POTEN	4.00000E-001	F	Step &1 (V)
TSTEP0	QUANT	2.80000E+002	Time &1 (s)
VSTEP1	POTEN	6.00000E-001	F	Step &2 (V)
TSTEP1	QUANT	2.80000E+002	Time &2 (s)
SAMPLETIME	QUANT	2.00000E-001	Sa&mple Period (s)
CONDIT	TWOPARAM	T	3.00000E+001	0.00000E+000	Conditionin&g	Time(s)	E(V)
DELAY	TWOPARAM	F	3.00000E+002	1.00000E-001	Init. De&lay	Time(s)	Stab.(mV/s)
EQDELAY	QUANT	0.00000E+000	Equil. &Time (s)
ILIMIT	QUANT	1.00000E+001	Limit &I (mA/cm^2)
IRANGE	QUANT	5.00000E+003	&Max Current (mA)
IRCOMP	SELECTOR	0	IRCom&p
PFCOR	QUANT	5.00000E+001	PF Corr. (ohm)
EOC	QUANT	0	Open Circuit (V)
PSTATMODEL	IQUANT	53	Pstat Model
PSTATSECTION	LABEL	IFC5000-19505	Pstat Section
PSTATSERIALNO	LABEL	19505	Pstat Serial Number
CTRLMODE	IQUANT	1	Control Mode
ELECTROMETER	IQUANT	0	RE=0 or CS=1
IESTAB	IQUANT	2	I/E Stability
CASPEED	IQUANT	4	Control Amp Speed
CONVENTION	IQUANT	1	Current Convention
ICHRANGE	IQUANT	2	Ich Range
ICHRANGEMODE	TOGGLE	F	Ich Auto Range
ICHOFFSETENABLE	TOGGLE	F	Ich Offset Enable
ICHOFFSET	QUANT	0	Ich Offset (V)
ICHFILTER	IQUANT	3	Ich Filter
VCHRANGE	IQUANT	2	Vch Range
VCHRANGEMODE	TOGGLE	F	Vch Auto Range
VCHOFFSETENABLE	TOGGLE	F	Vch Offset Enable
VCHOFFSET	QUANT	0	Vch Offset (V)
VCHFILTER	IQUANT	3	Vch Filter
IERANGELOWERLIMIT	IQUANT	7	I/E Range Lower Limit
IERANGEMODE	TOGGLE	T	I/E AutoRange
IERANGE	IQUANT	12	I/E Range
ACHSELECT	IQUANT	4	Ach Select
ACHRANGE	IQUANT	2	Ach Range
ACHOFFSETENABLE	TOGGLE	F	Ach Offset Enable
ACHOFFSET	QUANT	0	Ach Offset (V)
ACHFILTER	IQUANT	1	Ach Filter
SENSECABLEID	IQUANT	14	Sense Cable ID
PWRCABLEID	IQUANT	7	Power Cable ID
DCCALDATE	LABEL	8/27/2025	DC Calibration Date
ACCALDATE	LABEL	3/7/2024	AC Calibration Date
FRAMEWORKVERSION	LABEL	7.10.3	Framework Version
INSTRUMENTVERSION	LABEL	4.91	Instrument Version
COMMVERSION	LABEL	3.10	Communications Version
CPUPLDVERSION	LABEL	5.50	CPU PLD Version
CTRLPLDVERSION	LABEL	0.00	CTRL PLD Version
PSTATPLDVERSION	LABEL	0.00	PSTAT PLD Version
Curve	TABLE	2800
	Pt	T	Vf	Im	Vu	Sig	Ach	IERange	Over	Temp
	#	s	V vs. Ref.	A	V	V	V	#	bits	deg C
	0	0.2	4.00092E-001	3.13996E-004	0.00000E+000	3.99977E-001	2.07730E-004	12	...........	1572.12
	6	1.4	4.00059E-001	1.19156E-006	0.00000E+000	3.99977E-001	2.08647E-004	7	...........	1571.36
	12	2.6	4.00085E-001	9.65995E-007	0.00000E+000	3.99977E-001	2.12483E-004	7	...........	1571.36
	18	3.8	4.00071E-001	8.29050E-007	0.00000E+000	3.99977E-001	2.04396E-004	7	...........	1571.40
	24	5	4.00058E-001	7.31554E-007	0.00000E+000	3.99977E-001	2.19235E-004	7	...........	1571.46
	30	6.2	4.00072E-001	6.62446E-007	0.00000E+000	3.99977E-001	2.05646E-004	7	...........	1571.46
	36	7.4	4.00055E-001	6.05858E-007	0.00000E+000	3.99977E-001	2.16484E-004	7	...........	1571.36
	42	8.6	4.00061E-001	5.63158E-007	0.00000E+000	3.99977E-001	2.11899E-004	7	...........	1571.36
	48	9.8	4.00081E-001	5.27428E-007	0.00000E+000	3.99977E-001	1.82303E-004	7	...........	1571.46
	54	11	4.00082E-001	4.97635E-007	0.00000E+000	3.99977E-001	2.06647E-004	7	...........	1571.46
	60	12.2	4.00063E-001	4.71159E-007	0.00000E+000	3.99977E-001	2.08731E-004	7	...........	1571.36
	66	13.4	4.00054E-001	4.49243E-007	0.00000E+000	3.99977E-001	2.00561E-004	7	...........	1571.36
	72	14.6	4.00088E-001	4.30952E-007	0.00000E+000	3.99977E-001	2.08647E-004	7	...........	1571.36
	78	15.8	4.00044E-001	4.13245E-007	0.00000E+000	3.99977E-001	2.07480E-004	7	...........	1571.36
	84	17	4.00073E-001	3.99143E-007	0.00000E+000	3.99977E-001	1.91723E-004	7	...........	1571.36
	90	18.2	4.00072E-001	3.86189E-007	0.00000E+000	3.99977E-001	1.96726E-004	7	...........	1571.46
	96	19.4	4.00096E-001	3.72150E-007	0.00000E+000	3.99977E-001	2.03145E-004	7	...........	1571.36
	102	20.6	4.00057E-001	2.60730E-007	0.00000E+000	3.99977E-001	2.10232E-004	7	...........	1571.36
	108	21.8	4.00054E-001	2.39506E-007	0.00000E+000	3.99977E-001	1.96559E-004	7	...........	1571.40
	114	23	4.00083E-001	2.27930E-007	0.00000E+000	3.99977E-001	1.76467E-004	7	...........	1571.46
	120	24.2	4.00062E-001	2.18443E-007	0.00000E+000	3.99977E-001	2.10148E-004	7	...........	1571.36
	126	25.4	4.00076E-001	2.10740E-007	0.00000E+000	3.99977E-001	1.94308E-004	7	...........	1571.46
	132	26.6	4.00067E-001	2.03199E-007	0.00000E+000	3.99977E-001	2.06647E-004	7	...........	1571.46
	138	27.8	4.00081E-001	1.96594E-007	0.00000E+000	3.99977E-001	2.01144E-004	7	...........	1571.36
	144	29	4.00085E-001	1.90914E-007	0.00000E+000	3.99977E-001	1.87388E-004	7	...........	1571.36
	150	30.2	4.00070E-001	1.85214E-007	0.00000E+000	3.99977E-001	2.05813E-004	7	...........	1571.36
	156	31.4	4.00086E-001	1.80218E-007	0.00000E+000	3.99977E-001	2.11149E-004	7	...........	1571.46
	162	32.6	4.00067E-001	1.74785E-007	0.00000E+000	3.99977E-001	1.98893E-004	7	...........	1571.36
	168	33.8	4.00089E-001	1.71428E-007	0.00000E+000	3.99977E-001	2.03645E-004	7	...........	1571.41
	174	35	4.00083E-001	1.66307E-007	0.00000E+000	3.99977E-001	2.00394E-004	7	...........	1571.36
	180	36.2	4.00068E-001	1.62219E-007	0.00000E+000	3.99977E-001	2.01144E-004	7	...........	1571.36
	186	37.4	4.00048E-001	1.58643E-007	0.00000E+000	3.99977E-001	1.71548E-004	7	...........	1571.46
	192	38.6	4.00074E-001	1.54395E-007	0.00000E+000	3.99977E-001	1.61627E-004	7	...........	1571.36
	198	39.8	4.00048E-001	1.51195E-007	0.00000E+000	3.99977E-001	2.15817E-004	7	...........	1571.40
	204	41	4.00092E-001	2.66748E-007	0.00000E+000	3.99977E-001	2.03312E-004	7	...........	1571.46
	210	42.2	4.00090E-001	2.62739E-007	0.00000E+000	3.99977E-001	2.03145E-004	7	...........	1571.46
	216	43.4	4.00081E-001	2.59536E-007	0.00000E+000	3.99977E-001	2.03062E-004	7	...........	1571.46
	222	44.6	4.00072E-001	2.56328E-007	0.00000E+000	3.99977E-001	1.71881E-004	7	...........	1571.46
	228	45.8	4.00072E-001	2.51909E-007	0.00000E+000	3.99977E-001	2.13816E-004	7	...........	1571.36
	234	47	4.00068E-001	2.49244E-007	0.00000E+000	3.99977E-001	1.97809E-004	7	...........	1571.36
	240	48.2	4.00060E-001	2.46059E-007	0.00000E+000	3.99977E-001	1.94725E-004	7	...........	1571.36
	246	49.4	4.00071E-001	2.43052E-007	0.00000E+000	3.99977E-001	1.88555E-004	7	...........	1571.46
	252	50.6	4.00040E-001	2.40511E-007	0.00000E+000	3.99977E-001	1.78885E-004	7	...........	1571.46
	258	51.8	4.00064E-001	2.38483E-007	0.00000E+000	3.99977E-001	1.85971E-004	7	...........	1571.46
	264	53	4.00084E-001	2.33725E-007	0.00000E+000	3.99977E-001	1.90640E-004	7	...........	1571.46
	270	54.2	4.00077E-001	2.31996E-007	0.00000E+000	3.99977E-001	1.75300E-004	7	...........	1571.46
	276	55.4	4.00092E-001	2.29630E-007	0.00000E+000	3.99977E-001	2.06563E-004	7	...........	1571.46
	282	56.6	4.00056E-001	2.26742E-007	0.00000E+000	3.99977E-001	1.91557E-004	7	...........	1571.46
	288	57.8	4.00049E-001	2.24727E-007	0.00000E+000	3.99977E-001	2.00644E-004	7	...........	1571.40
	294	59	4.00066E-001	2.22547E-007	0.00000E+000	3.99977E-001	2.10065E-004	7	...........	1571.36
	300	60.2	4.00079E-001	2.19960E-007	0.00000E+000	3.99977E-001	1.88472E-004	7	...........	1571.46
	306	61.4	4.00064E-001	1.24857E-007	0.00000E+000	3.99977E-001	2.06480E-004	7	...........	1571.46
	312	62.6	4.00064E-001	1.19483E-007	0.00000E+000	3.99977E-001	2.01144E-004	7	...........	1571.46
	318	63.8	4.00056E-001	1.15713E-007	0.00000E+000	3.99977E-001	1.95892E-004	7	...........	1571.46
	324	65	4.00061E-001	1.12500E-007	0.00000E+000	3.99977E-001	1.62627E-004	7	...........	1571.46
	330	66.2	4.00087E-001	1.11069E-007	0.00000E+000	3.99977E-001	2.12733E-004	7	...........	1571.46
	336	67.4	4.00086E-001	1.08517E-007	0.00000E+000	3.99977E-001	1.94641E-004	7	...........	1571.46
	342	68.6	4.00064E-001	1.05984E-007	0.00000E+000	3.99977E-001	2.06813E-004	7	...........	1571.46
	348	69.8	4.00039E-001	1.04967E-007	0.00000E+000	3.99977E-001	1.94391E-004	7	...........	1571.46
	354	71	4.00064E-001	1.03258E-007	0.00000E+000	3.99977E-001	1.96892E-004	7	...........	1571.46
	360	72.2	4.00059E-001	1.02092E-007	0.00000E+000	3.99977E-001	1.99310E-004	7	...........	1571.46
	366	73.4	4.00068E-001	1.00457E-007	0.00000E+000	3.99977E-001	1.83470E-004	7	...........	1571.46
	372	74.6	4.00071E-001	9.66301E-008	0.00000E+000	3.99977E-001	1.81219E-004	7	...........	1571.46
	378	75.8	4.00076E-001	9.59634E-008	0.00000E+000	3.99977E-001	1.77884E-004	7	...........	1571.46
	384	77	4.00067E-001	9.45805E-008	0.00000E+000	3.99977E-001	1.91640E-004	7	...........	1571.36
	390	78.2	4.00077E-001	9.30098E-008	0.00000E+000	3.99977E-001	1.92974E-004	7	...........	1571.46
	396	79.4	4.00019E-001	9.24939E-008	0.00000E+000	3.99977E-001	1.62127E-004	7	...........	1571.46
	402	80.6	4.00080E-001	9.16262E-008	0.00000E+000	3.99977E-001	2.00561E-004	7	...........	1571.46
	408	81.8	4.00075E-001	1.93290E-007	0.00000E+000	3.99977E-001	1.89806E-004	7	...........	1571.46
	414	83	4.00081E-001	1.91954E-007	0.00000E+000	3.99977E-001	1.97726E-004	7	...........	1571.46
	420	84.2	4.00036E-001	1.90657E-007	0.00000E+000	3.99977E-001	1.89889E-004	7	...........	1571.46
	426	85.4	4.00070E-001	1.90149E-007	0.00000E+000	3.99977E-001	1.97809E-004	7	...........	1571.46
	432	86.6	4.00087E-001	1.90175E-007	0.00000E+000	3.99977E-001	1.79968E-004	7	...........	1571.46
	438	87.8	4.00081E-001	1.88802E-007	0.00000E+000	3.99977E-001	1.82386E-004	7	...........	1571.40
	444	89	4.00032E-001	1.87824E-007	0.00000E+000	3.99977E-001	1.97726E-004	7	...........	1571.46
	450	90.2	4.00079E-001	1.86703E-007	0.00000E+000	3.99977E-001	1.62294E-004	7	...........	1571.46
	456	91.4	4.00069E-001	1.85765E-007	0.00000E+000	3.99977E-001	1.71881E-004	7	...........	1571.36
	462	92.6	4.00082E-001	1.84837E-007	0.00000E+000	3.99977E-001	1.88639E-004	7	...........	1571.46
	468	93.8	4.00082E-001	1.83647E-007	0.00000E+000	3.99977E-001	1.84220E-004	7	...........	1571.46
	474	95	4.00084E-001	1.81847E-007	0.00000E+000	3.99977E-001	1.87222E-004	7	...........	1571.46
	480	96.2	4.00072E-001	1.80968E-007	0.00000E+000	3.99977E-001	1.93474E-004	7	...........	1571.46
	486	97.4	4.00052E-001	1.79298E-007	0.00000E+000	3.99977E-001	1.86304E-004	7	...........	1571.46
	492	98.6	4.00075E-001	1.78550E-007	0.00000E+000	3.99977E-001	1.53957E-004	7	...........	1571.46
	498	99.8	4.00062E-001	1.77209E-007	0.00000E+000	3.99977E-001	1.67713E-004	7	...........	1571.40
	504	101	4.00087E-001	9.46270E-008	0.00000E+000	3.99977E-001	1.74216E-004	7	...........	1571.36
	510	102.2	4.00070E-001	8.74108E-008	0.00000E+000	3.99977E-001	1.99060E-004	7	...........	1571.36
	516	103.4	4.00052E-001	8.46978E-008	0.00000E+000	3.99977E-001	1.90556E-004	7	...........	1571.46
	522	104.6	4.00078E-001	8.28762E-008	0.00000E+000	3.99977E-001	1.91140E-004	7	...........	1571.46
	528	105.8	4.00055E-001	8.05595E-008	0.00000E+000	3.99977E-001	1.68630E-004	7	...........	1571.40
	534	107	4.00074E-001	7.85502E-008	0.00000E+000	3.99977E-001	1.86971E-004	7	...........	1571.46
	540	108.2	4.00056E-001	7.70866E-008	0.00000E+000	3.99977E-001	1.75300E-004	7	...........	1571.36
	546	109.4	4.00045E-001	7.61800E-008	0.00000E+000	3.99977E-001	1.96476E-004	7	...........	1571.36
	552	110.6	4.00039E-001	7.58455E-008	0.00000E+000	3.99977E-001	1.87305E-004	7	...........	1571.46
	558	111.8	4.00038E-001	7.48249E-008	0.00000E+000	3.99977E-001	1.69964E-004	7	...........	1571.40
	564	113	4.00085E-001	7.45634E-008	0.00000E+000	3.99977E-001	1.90556E-004	7	...........	1571.46
	570	114.2	4.00066E-001	7.32549E-008	0.00000E+000	3.99977E-001	1.63961E-004	7	...........	1571.46
	576	115.4	4.00080E-001	7.23990E-008	0.00000E+000	3.99977E-001	1.76800E-004	7	...........	1571.46
	582	116.6	4.00078E-001	7.18025E-008	0.00000E+000	3.99977E-001	1.67463E-004	7	...........	1571.46
	588	117.8	4.00066E-001	7.15564E-008	0.00000E+000	3.99977E-001	1.70714E-004	7	...........	1571.46
	594	119	4.00052E-001	7.14910E-008	0.00000E+000	3.99977E-001	1.71381E-004	7	...........	1571.46
	600	120.2	4.00084E-001	7.09828E-008	0.00000E+000	3.99977E-001	1.99393E-004	7	...........	1571.46
	606	121.4	4.00072E-001	1.61085E-007	0.00000E+000	3.99977E-001	1.84220E-004	7	...........	1571.46
	612	122.6	4.00057E-001	1.62687E-007	0.00000E+000	3.99977E-001	1.85304E-004	7	...........	1571.46
	618	123.8	4.00083E-001	1.61969E-007	0.00000E+000	3.99977E-001	1.92140E-004	7	...........	1571.41
	624	125	4.00069E-001	1.62151E-007	0.00000E+000	3.99977E-001	1.91723E-004	7	...........	1571.46
	630	126.2	4.00060E-001	1.61987E-007	0.00000E+000	3.99977E-001	1.66963E-004	7	...........	1571.46
	636	127.4	4.00072E-001	1.60692E-007	0.00000E+000	3.99977E-001	1.73382E-004	7	...........	1571.46
	642	128.6	4.00070E-001	1.59704E-007	0.00000E+000	3.99977E-001	1.79218E-004	7	...........	1571.46
	648	129.8	4.00061E-001	1.60151E-007	0.00000E+000	3.99977E-001	1.91140E-004	7	...........	1571.46
	654	131	4.00047E-001	1.59063E-007	0.00000E+000	3.99977E-001	1.82720E-004	7	...........	1571.46
	660	132.2	4.00080E-001	1.57963E-007	0.00000E+000	3.99977E-001	1.81636E-004	7	...........	1571.46
	666	133.4	4.00075E-001	1.57546E-007	0.00000E+000	3.99977E-001	1.86138E-004	7	...........	1571.46
	672	134.6	4.00081E-001	1.57077E-007	0.00000E+000	3.99977E-001	1.72382E-004	7	...........	1571.46
	678	135.8	4.00066E-001	1.56157E-007	0.00000E+000	3.99977E-001	1.72632E-004	7	...........	1571.46
	684	137	4.00070E-001	1.55735E-007	0.00000E+000	3.99977E-001	1.86388E-004	7	...........	1571.46
	690	138.2	4.00059E-001	1.54651E-007	0.00000E+000	3.99977E-001	1.68380E-004	7	...........	1571.46
	696	139.4	4.00056E-001	1.53949E-007	0.00000E+000	3.99977E-001	1.77467E-004	7	...........	1571.46
	702	140.6	4.00070E-001	1.52752E-007	0.00000E+000	3.99977E-001	1.79718E-004	7	...........	1571.46
	708	141.8	4.00056E-001	7.33251E-008	0.00000E+000	3.99977E-001	1.76050E-004	7	...........	1571.40
	714	143	4.00080E-001	6.94545E-008	0.00000E+000	3.99977E-001	1.77050E-004	7	...........	1571.46
	720	144.2	4.00037E-001	6.64252E-008	0.00000E+000	3.99977E-001	1.65879E-004	7	...........	1571.46
	726	145.4	4.00077E-001	6.53253E-008	0.00000E+000	3.99977E-001	2.05229E-004	7	...........	1571.46
	732	146.6	4.00036E-001	6.44833E-008	0.00000E+000	3.99977E-001	1.82803E-004	7	...........	1571.46
	738	147.8	4.00032E-001	6.29113E-008	0.00000E+000	3.99977E-001	1.54791E-004	7	...........	1571.46
	744	149	4.00038E-001	6.24865E-008	0.00000E+000	3.99977E-001	1.74132E-004	7	...........	1571.46
	750	150.2	4.00066E-001	6.18572E-008	0.00000E+000	3.99977E-001	1.87805E-004	7	...........	1571.46
	756	151.4	4.00080E-001	6.13281E-008	0.00000E+000	3.99977E-001	1.61127E-004	7	...........	1571.46
	762	152.6	4.00061E-001	6.10625E-008	0.00000E+000	3.99977E-001	1.60376E-004	7	...........	1571.46
	768	153.8	4.00072E-001	5.96483E-008	0.00000E+000	3.99977E-001	1.68130E-004	7	...........	1571.46
	774	155	4.00052E-001	5.93118E-008	0.00000E+000	3.99977E-001	1.80719E-004	7	...........	1571.46
	780	156.2	4.00079E-001	5.89788E-008	0.00000E+000	3.99977E-001	1.80635E-004	7	...........	1571.46
	786	157.4	4.00040E-001	5.88050E-008	0.00000E+000	3.99977E-001	1.88139E-004	7	...........	1571.46
	792	158.6	4.00070E-001	5.84664E-008	0.00000E+000	3.99977E-001	1.76383E-004	7	...........	1571.46
	798	159.8	4.00053E-001	5.69298E-008	0.00000E+000	3.99977E-001	1.80719E-004	7	...........	1571.46
	804	161	4.00083E-001	1.41085E-007	0.00000E+000	3.99977E-001	1.84887E-004	7	...........	1571.46
	810	162.2	4.00085E-001	1.43991E-007	0.00000E+000	3.99977E-001	1.70297E-004	7	...........	1571.46
	816	163.4	4.00069E-001	1.44622E-007	0.00000E+000	3.99977E-001	1.61627E-004	7	...........	1571.46
	822	164.6	4.00060E-001	1.44613E-007	0.00000E+000	3.99977E-001	1.91307E-004	7	...........	1571.46
	828	165.8	4.00064E-001	1.45017E-007	0.00000E+000	3.99977E-001	1.75800E-004	7	...........	1571.46
	834	167	4.00061E-001	1.42854E-007	0.00000E+000	3.99977E-001	1.64628E-004	7	...........	1571.46
	840	168.2	4.00037E-001	1.44015E-007	0.00000E+000	3.99977E-001	1.75050E-004	7	...........	1571.46
	846	169.4	4.00035E-001	1.42196E-007	0.00000E+000	3.99977E-001	1.78801E-004	7	...........	1571.46
	852	170.6	4.00065E-001	1.42298E-007	0.00000E+000	3.99977E-001	1.65295E-004	7	...........	1571.46
	858	171.8	4.00064E-001	1.43410E-007	0.00000E+000	3.99977E-001	1.52707E-004	7	...........	1571.46
	864	173	4.00082E-001	1.42003E-007	0.00000E+000	3.99977E-001	1.76133E-004	7	...........	1571.46
	870	174.2	4.00077E-001	1.41811E-007	0.00000E+000	3.99977E-001	1.92140E-004	7	...........	1571.46
	876	175.4	4.00075E-001	1.41288E-007	0.00000E+000	3.99977E-001	1.70798E-004	7	...........	1571.46
	882	176.6	4.00066E-001	1.40945E-007	0.00000E+000	3.99977E-001	1.79718E-004	7	...........	1571.46
	888	177.8	4.00069E-001	1.39894E-007	0.00000E+000	3.99977E-001	1.86971E-004	7	...........	1571.46
	894	179	4.00031E-001	1.40525E-007	0.00000E+000	3.99977E-001	1.79551E-004	7	...........	1571.46
	900	180.2	4.00054E-001	1.39084E-007	0.00000E+000	3.99977E-001	1.70631E-004	7	...........	1571.46
	906	181.4	4.00072E-001	6.61853E-008	0.00000E+000	3.99977E-001	1.76550E-004	7	...........	1571.46
	912	182.6	4.00061E-001	6.06913E-008	0.00000E+000	3.99977E-001	1.85221E-004	7	...........	1571.46
	918	183.8	4.00049E-001	5.90330E-008	0.00000E+000	3.99977E-001	1.75216E-004	7	...........	1571.46
	924	185	4.00072E-001	5.87348E-008	0.00000E+000	3.99977E-001	1.74132E-004	7	...........	1571.46
	930	186.2	4.00051E-001	5.71398E-008	0.00000E+000	3.99977E-001	1.80385E-004	7	...........	1571.46
	936	187.4	4.00035E-001	5.61108E-008	0.00000E+000	3.99977E-001	1.66713E-004	7	...........	1571.46
	942	188.6	4.00028E-001	5.50171E-008	0.00000E+000	3.99977E-001	1.74132E-004	7	...........	1571.46
	948	189.8	4.00063E-001	5.45680E-008	0.00000E+000	3.99977E-001	1.86638E-004	7	...........	1571.46
	954	191	4.00022E-001	5.27741E-008	0.00000E+000	3.99977E-001	1.69714E-004	7	...........	1571.46
	960	192.2	4.00063E-001	5.37260E-008	0.00000E+000	3.99977E-001	1.74299E-004	7	...........	1571.46
	966	193.4	4.00030E-001	5.27672E-008	0.00000E+000	3.99977E-001	1.83136E-004	7	...........	1571.46
	972	194.6	4.00012E-001	5.23285E-008	0.00000E+000	3.99977E-001	1.76217E-004	7	...........	1571.46
	978	195.8	4.00058E-001	5.16401E-008	0.00000E+000	3.99977E-001	1.75883E-004	7	...........	1571.46
	984	197	4.00068E-001	5.17451E-008	0.00000E+000	3.99977E-001	1.66546E-004	7	...........	1571.46
	990	198.2	4.00067E-001	5.08580E-008	0.00000E+000	3.99977E-001	1.66462E-004	7	...........	1571.46
	996	199.4	4.00066E-001	5.01974E-008	0.00000E+000	3.99977E-001	1.80719E-004	7	...........	1571.46
	1002	200.6	4.00029E-001	5.00966E-008	0.00000E+000	3.99977E-001	1.87138E-004	7	...........	1571.46
	1008	201.8	4.00066E-001	1.30967E-007	0.00000E+000	3.99977E-001	1.82469E-004	7	...........	1571.46
	1014	203	4.00072E-001	1.31635E-007	0.00000E+000	3.99977E-001	1.77217E-004	7	...........	1571.46
	1020	204.2	4.00070E-001	1.32060E-007	0.00000E+000	3.99977E-001	1.65712E-004	7	...........	1571.46
	1026	205.4	4.00057E-001	1.32664E-007	0.00000E+000	3.99977E-001	1.49372E-004	7	...........	1571.46
	1032	206.6	4.00065E-001	1.32404E-007	0.00000E+000	3.99977E-001	1.66046E-004	7	...........	1571.46
	1038	207.8	4.00056E-001	1.31967E-007	0.00000E+000	3.99977E-001	1.77467E-004	7	...........	1571.46
	1044	209	4.00046E-001	1.32550E-007	0.00000E+000	3.99977E-001	1.60293E-004	7	...........	1571.46
	1050	210.2	4.00046E-001	1.32134E-007	0.00000E+000	3.99977E-001	1.73882E-004	7	...........	1571.46
	1056	211.4	4.00054E-001	1.30984E-007	0.00000E+000	3.99977E-001	1.72465E-004	7	...........	1571.46
	1062	212.6	4.00047E-001	1.29499E-007	0.00000E+000	3.99977E-001	1.55958E-004	7	...........	1571.46
	1068	213.8	4.00065E-001	1.29273E-007	0.00000E+000	3.99977E-001	1.62377E-004	7	...........	1571.46
	1074	215	4.00059E-001	1.27781E-007	0.00000E+000	3.99977E-001	1.73132E-004	7	...........	1571.46
	1080	216.2	4.00059E-001	1.28143E-007	0.00000E+000	3.99977E-001	1.38033E-004	7	...........	1571.46
	1086	217.4	4.00052E-001	1.26834E-007	0.00000E+000	3.99977E-001	1.65295E-004	7	...........	1571.46
	1092	218.6	3.99991E-001	1.27085E-007	0.00000E+000	3.99977E-001	1.54040E-004	7	...........	1571.46
	1098	219.8	4.00014E-001	1.26877E-007	0.00000E+000	3.99977E-001	1.74049E-004	7	...........	1571.46
	1104	221	4.00064E-001	1.27280E-007	0.00000E+000	3.99977E-001	1.47371E-004	7	...........	1571.46
	1110	222.2	4.00062E-001	5.45388E-008	0.00000E+000	3.99977E-001	1.61210E-004	7	...........	1571.46
	1116	223.4	4.00064E-001	5.13147E-008	0.00000E+000	3.99977E-001	1.72465E-004	7	...........	1571.46
	1122	224.6	4.00062E-001	5.02280E-008	0.00000E+000	3.99977E-001	1.75383E-004	7	...........	1571.46
	1128	225.8	4.00061E-001	4.82778E-008	0.00000E+000	3.99977E-001	1.66879E-004	7	...........	1571.46
	1134	227	4.00042E-001	4.74115E-008	0.00000E+000	3.99977E-001	1.53290E-004	7	...........	1571.46
	1140	228.2	4.00050E-001	4.77779E-008	0.00000E+000	3.99977E-001	1.85637E-004	7	...........	1571.46
	1146	229.4	4.00049E-001	4.72634E-008	0.00000E+000	3.99977E-001	1.74966E-004	7	...........	1571.46
	1152	230.6	4.00064E-001	4.54278E-008	0.00000E+000	3.99977E-001	1.70964E-004	7	...........	1571.46
	1158	231.8	4.00042E-001	4.46331E-008	0.00000E+000	3.99977E-001	1.65462E-004	7	...........	1571.46
	1164	233	4.00043E-001	4.67704E-008	0.00000E+000	3.99977E-001	1.49205E-004	7	...........	1571.46
	1170	234.2	4.00067E-001	4.58680E-008	0.00000E+000	3.99977E-001	1.56958E-004	7	...........	1571.46
	1176	235.4	4.00065E-001	4.48348E-008	0.00000E+000	3.99977E-001	1.76300E-004	7	...........	1571.46
	1182	236.6	4.00050E-001	4.46575E-008	0.00000E+000	3.99977E-001	1.66046E-004	7	...........	1571.46
	1188	237.8	4.00047E-001	4.38072E-008	0.00000E+000	3.99977E-001	1.58876E-004	7	...........	1571.46
	1194	239	4.00046E-001	4.42820E-008	0.00000E+000	3.99977E-001	1.66546E-004	7	...........	1571.46
	1200	240.2	4.00059E-001	4.37592E-008	0.00000E+000	3.99977E-001	1.62627E-004	7	...........	1571.46
	1206	241.4	4.00062E-001	1.20479E-007	0.00000E+000	3.99977E-001	1.65129E-004	7	...........	1571.46
	1212	242.6	4.00060E-001	1.20169E-007	0.00000E+000	3.99977E-001	1.63628E-004	7	...........	1571.46
	1218	243.8	4.00057E-001	1.22072E-007	0.00000E+000	3.99977E-001	1.61294E-004	7	...........	1571.46
	1224	245	4.00054E-001	1.23147E-007	0.00000E+000	3.99977E-001	1.53457E-004	7	...........	1571.46
	1230	246.2	4.00047E-001	1.23209E-007	0.00000E+000	3.99977E-001	1.76217E-004	7	...........	1571.46
	1236	247.4	4.00039E-001	1.22896E-007	0.00000E+000	3.99977E-001	1.63128E-004	7	...........	1571.55
	1242	248.6	4.00061E-001	1.23761E-007	0.00000E+000	3.99977E-001	1.73049E-004	7	...........	1571.46
	1248	249.8	4.00055E-001	1.22730E-007	0.00000E+000	3.99977E-001	1.60293E-004	7	...........	1571.46
	1254	251	4.00056E-001	1.23188E-007	0.00000E+000	3.99977E-001	1.60210E-004	7	...........	1571.46
	1260	252.2	4.00045E-001	1.23021E-007	0.00000E+000	3.99977E-001	1.63628E-004	7	...........	1571.46
	1266	253.4	4.00058E-001	1.22568E-007	0.00000E+000	3.99977E-001	1.75383E-004	7	...........	1571.46
	1272	254.6	4.00038E-001	1.21595E-007	0.00000E+000	3.99977E-001	1.76717E-004	7	...........	1571.46
	1278	255.8	4.00039E-001	1.21617E-007	0.00000E+000	3.99977E-001	1.72715E-004	7	...........	1571.46
	1284	257	4.00066E-001	1.20856E-007	0.00000E+000	3.99977E-001	1.58792E-004	7	...........	1571.46
	1290	258.2	4.00020E-001	1.21146E-007	0.00000E+000	3.99977E-001	1.16858E-004	7	...........	1571.46
	1296	259.4	4.00050E-001	1.20289E-007	0.00000E+000	3.99977E-001	1.76550E-004	7	...........	1571.46
	1302	260.6	4.00060E-001	1.19227E-007	0.00000E+000	3.99977E-001	1.77301E-004	7	...........	1571.46
	1308	261.8	4.00055E-001	5.14538E-008	0.00000E+000	3.99977E-001	1.69714E-004	7	...........	1571.46
	1314	263	4.00056E-001	4.75950E-008	0.00000E+000	3.99977E-001	1.68964E-004	7	...........	1571.46
	1320	264.2	4.00038E-001	4.52777E-008	0.00000E+000	3.99977E-001	1.58626E-004	7	...........	1571.46
	1326	265.4	4.00040E-001	4.24959E-008	0.00000E+000	3.99977E-001	1.65295E-004	7	...........	1571.46
	1332	266.6	4.00049E-001	4.28831E-008	0.00000E+000	3.99977E-001	1.65712E-004	7	...........	1571.55
	1338	267.8	4.00048E-001	4.25577E-008	0.00000E+000	3.99977E-001	1.63878E-004	7	...........	1571.50
	1344	269	4.00037E-001	4.20126E-008	0.00000E+000	3.99977E-001	1.65712E-004	7	...........	1571.46
	1350	270.2	4.00056E-001	4.04205E-008	0.00000E+000	3.99977E-001	1.68297E-004	7	...........	1571.46
	1356	271.4	4.00039E-001	4.06617E-008	0.00000E+000	3.99977E-001	1.68130E-004	7	...........	1571.46
	1362	272.6	4.00061E-001	4.04066E-008	0.00000E+000	3.99977E-001	1.66129E-004	7	...........	1571.55
	1368	273.8	4.00039E-001	3.89367E-008	0.00000E+000	3.99977E-001	1.53957E-004	7	...........	1571.46
	1374	275	4.00035E-001	3.92517E-008	0.00000E+000	3.99977E-001	1.45787E-004	7	...........	1571.46
	1380	276.2	4.00056E-001	3.91411E-008	0.00000E+000	3.99977E-001	1.78218E-004	7	...........	1571.55
	1386	277.4	4.00021E-001	3.95583E-008	0.00000E+000	3.99977E-001	1.39034E-004	7	...........	1571.55
	1392	278.6	4.00053E-001	4.00360E-008	0.00000E+000	3.99977E-001	1.58876E-004	7	...........	1571.55
	1398	279.8	4.00045E-001	3.88936E-008	0.00000E+000	3.99977E-001	1.61460E-004	7	...........	1571.51
	1404	281	5.99977E-001	1.03235E-006	0.00000E+000	5.99991E-001	1.52456E-004	7	...........	1571.46
	1410	282.2	5.99992E-001	8.69227E-007	0.00000E+000	5.99991E-001	1.34449E-004	7	...........	1571.46
	1416	283.4	5.99994E-001	7.37776E-007	0.00000E+000	5.99991E-001	1.66963E-004	7	...........	1571.46
	1422	284.6	5.99978E-001	6.59596E-007	0.00000E+000	5.99991E-001	1.52290E-004	7	...........	1571.55
	1428	285.8	5.99991E-001	6.16463E-007	0.00000E+000	5.99991E-001	1.73299E-004	7	...........	1571.55
	1434	287	5.99966E-001	5.84391E-007	0.00000E+000	5.99991E-001	1.49872E-004	7	...........	1571.55
	1440	288.2	5.99996E-001	5.58019E-007	0.00000E+000	5.99991E-001	1.46954E-004	7	...........	1571.55
	1446	289.4	5.99997E-001	5.36427E-007	0.00000E+000	5.99991E-001	1.50539E-004	7	...........	1571.55
	1452	290.6	6.00003E-001	5.16265E-007	0.00000E+000	5.99991E-001	1.63294E-004	7	...........	1571.46
	1458	291.8	5.99995E-001	5.00812E-007	0.00000E+000	5.99991E-001	1.45787E-004	7	...........	1571.46
	1464	293	6.00004E-001	4.88039E-007	0.00000E+000	5.99991E-001	1.52373E-004	7	...........	1571.46
	1470	294.2	5.99996E-001	4.76931E-007	0.00000E+000	5.99991E-001	1.65295E-004	7	...........	1571.55
	1476	295.4	5.99984E-001	4.68373E-007	0.00000E+000	5.99991E-001	1.76133E-004	7	...........	1571.55
	1482	296.6	5.99954E-001	4.57902E-007	0.00000E+000	5.99991E-001	1.49288E-004	7	...........	1571.55
	1488	297.8	5.99985E-001	4.49999E-007	0.00000E+000	5.99991E-001	1.57042E-004	7	...........	1571.55
	1494	299	5.99984E-001	4.40168E-007	0.00000E+000	5.99991E-001	1.63545E-004	7	...........	1571.55
	1500	300.2	5.99994E-001	4.27485E-007	0.00000E+000	5.99991E-001	1.59793E-004	7	...........	1571.55
	1506	301.4	5.99982E-001	3.01122E-007	0.00000E+000	5.99991E-001	1.60376E-004	7	...........	1571.46
	1512	302.6	5.99980E-001	2.82954E-007	0.00000E+000	5.99991E-001	1.44203E-004	7	...........	1571.55
	1518	303.8	5.99987E-001	2.75426E-007	0.00000E+000	5.99991E-001	1.71465E-004	7	...........	1571.46
	1524	305	5.99997E-001	2.69340E-007	0.00000E+000	5.99991E-001	1.57959E-004	7	...........	1571.55
	1530	306.2	5.99973E-001	2.64536E-007	0.00000E+000	5.99991E-001	1.62878E-004	7	...........	1571.55
	1536	307.4	5.99993E-001	2.60714E-007	0.00000E+000	5.99991E-001	1.42452E-004	7	...........	1571.55
	1542	308.6	5.99981E-001	2.59143E-007	0.00000E+000	5.99991E-001	1.70131E-004	7	...........	1571.55
	1548	309.8	6.00006E-001	2.54451E-007	0.00000E+000	5.99991E-001	1.59459E-004	7	...........	1571.55
	1554	311	5.99995E-001	2.44288E-007	0.00000E+000	5.99991E-001	1.59543E-004	7	...........	1571.55
	1560	312.2	5.99960E-001	2.39623E-007	0.00000E+000	5.99991E-001	1.68213E-004	7	...........	1571.55
	1566	313.4	5.99989E-001	2.37762E-007	0.00000E+000	5.99991E-001	1.50872E-004	7	...........	1571.55
	1572	314.6	5.99958E-001	2.29778E-007	0.00000E+000	5.99991E-001	1.55875E-004	7	...........	1571.55
	1578	315.8	5.99983E-001	2.26481E-007	0.00000E+000	5.99991E-001	1.69881E-004	7	...........	1571.55
	1584	317	5.99991E-001	2.35587E-007	0.00000E+000	5.99991E-001	1.62211E-004	7	...........	1571.55
	1590	318.2	5.99997E-001	2.28586E-007	0.00000E+000	5.99991E-001	1.58376E-004	7	...........	1571.55
	1596	319.4	5.99962E-001	2.25824E-007	0.00000E+000	5.99991E-001	1.34949E-004	7	...........	1571.55
	1602	320.6	5.99983E-001	2.19469E-007	0.00000E+000	5.99991E-001	1.53790E-004	7	...........	1571.55
	1608	321.8	6.00003E-001	3.57057E-007	0.00000E+000	5.99991E-001	1.66212E-004	7	...........	1571.55
	1614	323	5.99993E-001	3.53731E-007	0.00000E+000	5.99991E-001	1.57208E-004	7	...........	1571.55
	1620	324.2	5.99987E-001	3.50687E-007	0.00000E+000	5.99991E-001	1.67046E-004	7	...........	1571.55
	1626	325.4	5.99959E-001	3.47991E-007	0.00000E+000	5.99991E-001	1.55124E-004	7	...........	1571.55
	1632	326.6	5.99989E-001	3.48839E-007	0.00000E+000	5.99991E-001	1.26779E-004	7	...........	1571.55
	1638	327.8	6.00001E-001	3.48306E-007	0.00000E+000	5.99991E-001	1.65545E-004	7	...........	1571.55
	1644	329	5.99987E-001	3.46504E-007	0.00000E+000	5.99991E-001	1.35116E-004	7	...........	1571.55
	1650	330.2	5.99976E-001	3.45774E-007	0.00000E+000	5.99991E-001	1.52540E-004	7	...........	1571.55
	1656	331.4	5.99994E-001	3.43974E-007	0.00000E+000	5.99991E-001	1.34282E-004	7	...........	1571.55
	1662	332.6	5.99994E-001	3.41879E-007	0.00000E+000	5.99991E-001	1.62878E-004	7	...........	1571.55
	1668	333.8	5.99953E-001	3.40237E-007	0.00000E+000	5.99991E-001	1.61961E-004	7	...........	1571.55
	1674	335	5.99987E-001	3.39319E-007	0.00000E+000	5.99991E-001	1.47287E-004	7	...........	1571.55
	1680	336.2	5.99972E-001	3.38950E-007	0.00000E+000	5.99991E-001	1.54541E-004	7	...........	1571.55
	1686	337.4	5.99953E-001	3.34929E-007	0.00000E+000	5.99991E-001	1.51623E-004	7	...........	1571.55
	1692	338.6	6.00001E-001	3.33870E-007	0.00000E+000	5.99991E-001	1.58126E-004	7	...........	1571.55
	1698	339.8	5.99994E-001	3.30958E-007	0.00000E+000	5.99991E-001	1.52790E-004	7	...........	1571.55
	1704	341	5.99984E-001	3.29581E-007	0.00000E+000	5.99991E-001	1.55374E-004	7	...........	1571.46
	1710	342.2	5.99970E-001	2.03928E-007	0.00000E+000	5.99991E-001	1.62878E-004	7	...........	1571.55
	1716	343.4	5.99969E-001	1.94942E-007	0.00000E+000	5.99991E-001	1.53123E-004	7	...........	1571.46
	1722	344.6	5.99981E-001	1.92660E-007	0.00000E+000	5.99991E-001	1.56208E-004	7	...........	1571.46
	1728	345.8	5.99923E-001	1.92124E-007	0.00000E+000	5.99991E-001	1.60627E-004	7	...........	1571.46
	1734	347	6.00007E-001	1.85542E-007	0.00000E+000	5.99991E-001	1.54541E-004	7	...........	1571.55
	1740	348.2	5.99972E-001	1.84099E-007	0.00000E+000	5.99991E-001	1.60376E-004	7	...........	1571.55
	1746	349.4	5.99969E-001	1.82315E-007	0.00000E+000	5.99991E-001	1.40451E-004	7	...........	1571.55
	1752	350.6	5.99990E-001	1.80536E-007	0.00000E+000	5.99991E-001	1.52373E-004	7	...........	1571.55
	1758	351.8	5.99974E-001	1.73742E-007	0.00000E+000	5.99991E-001	1.50706E-004	7	...........	1571.50
	1764	353	5.99978E-001	1.74539E-007	0.00000E+000	5.99991E-001	1.55875E-004	7	...........	1571.55
	1770	354.2	6.00001E-001	1.74845E-007	0.00000E+000	5.99991E-001	1.64045E-004	7	...........	1571.46
	1776	355.4	5.99974E-001	1.74360E-007	0.00000E+000	5.99991E-001	1.26779E-004	7	...........	1571.55
	1782	356.6	5.99997E-001	1.77572E-007	0.00000E+000	5.99991E-001	1.56541E-004	7	...........	1571.46
	1788	357.8	5.99991E-001	1.72608E-007	0.00000E+000	5.99991E-001	1.12772E-004	7	...........	1571.50
	1794	359	5.99957E-001	1.69651E-007	0.00000E+000	5.99991E-001	1.60877E-004	7	...........	1571.55
	1800	360.2	6.00005E-001	1.69979E-007	0.00000E+000	5.99991E-001	1.48955E-004	7	...........	1571.55
	1806	361.4	5.99975E-001	2.05104E-007	0.00000E+000	5.99991E-001	1.57625E-004	7	...........	1571.55
	1812	362.6	5.99985E-001	3.01934E-007	0.00000E+000	5.99991E-001	1.43619E-004	7	...........	1571.55
	1818	363.8	5.99975E-001	3.00158E-007	0.00000E+000	5.99991E-001	1.36950E-004	7	...........	1571.55
	1824	365	5.99969E-001	3.00618E-007	0.00000E+000	5.99991E-001	1.52540E-004	7	...........	1571.55
	1830	366.2	5.99980E-001	3.01277E-007	0.00000E+000	5.99991E-001	1.55291E-004	7	...........	1571.55
	1836	367.4	5.99994E-001	3.01407E-007	0.00000E+000	5.99991E-001	1.48038E-004	7	...........	1571.55
	1842	368.6	5.99973E-001	3.00599E-007	0.00000E+000	5.99991E-001	1.59960E-004	7	...........	1571.55
	1848	369.8	5.99988E-001	3.00120E-007	0.00000E+000	5.99991E-001	1.50039E-004	7	...........	1571.55
	1854	371	5.99978E-001	2.97124E-007	0.00000E+000	5.99991E-001	1.43119E-004	7	...........	1571.55
	1860	372.2	5.99964E-001	2.96572E-007	0.00000E+000	5.99991E-001	1.15357E-004	7	...........	1571.55
	1866	373.4	5.99952E-001	2.96604E-007	0.00000E+000	5.99991E-001	1.54791E-004	7	...........	1571.55
	1872	374.6	5.99995E-001	2.96553E-007	0.00000E+000	5.99991E-001	1.71298E-004	7	...........	1571.55
	1878	375.8	6.00011E-001	2.94717E-007	0.00000E+000	5.99991E-001	1.59209E-004	7	...........	1571.55
	1884	377	6.00004E-001	2.94644E-007	0.00000E+000	5.99991E-001	1.41368E-004	7	...........	1571.55
	1890	378.2	6.00002E-001	2.93848E-007	0.00000E+000	5.99991E-001	1.54624E-004	7	...........	1571.55
	1896	379.4	5.99969E-001	2.92177E-007	0.00000E+000	5.99991E-001	1.30947E-004	7	...........	1571.55
	1902	380.6	5.99989E-001	2.91325E-007	0.00000E+000	5.99991E-001	1.25695E-004	7	...........	1571.55
	1908	381.8	5.99956E-001	1.77389E-007	0.00000E+000	5.99991E-001	1.46621E-004	7	...........	1571.55
	1914	383	5.99972E-001	1.68842E-007	0.00000E+000	5.99991E-001	1.57042E-004	7	...........	1571.55
	1920	384.2	6.00006E-001	1.65064E-007	0.00000E+000	5.99991E-001	1.36783E-004	7	...........	1571.55
	1926	385.4	5.99983E-001	1.62217E-007	0.00000E+000	5.99991E-001	1.73049E-004	7	...........	1571.55
	1932	386.6	5.99981E-001	1.60639E-007	0.00000E+000	5.99991E-001	1.42702E-004	7	...........	1571.55
	1938	387.8	5.99981E-001	1.60302E-007	0.00000E+000	5.99991E-001	1.43119E-004	7	...........	1571.55
	1944	389	5.99958E-001	1.60653E-007	0.00000E+000	5.99991E-001	1.63294E-004	7	...........	1571.55
	1950	390.2	5.99969E-001	1.64502E-007	0.00000E+000	5.99991E-001	1.65545E-004	7	...........	1571.55
	1956	391.4	5.99984E-001	1.62945E-007	0.00000E+000	5.99991E-001	1.34865E-004	7	...........	1571.55
	1962	392.6	5.99968E-001	1.59578E-007	0.00000E+000	5.99991E-001	1.42119E-004	7	...........	1571.55
	1968	393.8	5.99961E-001	1.56242E-007	0.00000E+000	5.99991E-001	1.53207E-004	7	...........	1571.55
	1974	395	5.99988E-001	1.57074E-007	0.00000E+000	5.99991E-001	1.57292E-004	7	...........	1571.55
	1980	396.2	5.99959E-001	1.58167E-007	0.00000E+000	5.99991E-001	1.43869E-004	7	...........	1571.55
	1986	397.4	5.99971E-001	1.55392E-007	0.00000E+000	5.99991E-001	1.38117E-004	7	...........	1571.55
	1992	398.6	5.99972E-001	1.55737E-007	0.00000E+000	5.99991E-001	1.55875E-004	7	...........	1571.55
	1998	399.8	5.99975E-001	1.55120E-007	0.00000E+000	5.99991E-001	1.42119E-004	7	...........	1571.55
	2004	401	5.99973E-001	1.53311E-007	0.00000E+000	5.99991E-001	1.29696E-004	7	...........	1571.55
	2010	402.2	5.99989E-001	2.80921E-007	0.00000E+000	5.99991E-001	1.14940E-004	7	...........	1571.55
	2016	403.4	5.99946E-001	2.81645E-007	0.00000E+000	5.99991E-001	1.57125E-004	7	...........	1571.55
	2022	404.6	5.99980E-001	2.79127E-007	0.00000E+000	5.99991E-001	1.40618E-004	7	...........	1571.55
	2028	405.8	5.99969E-001	2.80412E-007	0.00000E+000	5.99991E-001	1.58876E-004	7	...........	1571.55
	2034	407	5.99978E-001	2.80128E-007	0.00000E+000	5.99991E-001	1.57792E-004	7	...........	1571.55
	2040	408.2	5.99965E-001	2.81100E-007	0.00000E+000	5.99991E-001	1.55041E-004	7	...........	1571.55
	2046	409.4	5.99981E-001	2.81039E-007	0.00000E+000	5.99991E-001	1.44703E-004	7	...........	1571.55
	2052	410.6	5.99994E-001	2.81328E-007	0.00000E+000	5.99991E-001	1.37533E-004	7	...........	1571.55
	2058	411.8	5.99955E-001	2.81049E-007	0.00000E+000	5.99991E-001	1.23944E-004	7	...........	1571.55
	2064	413	5.99976E-001	2.80088E-007	0.00000E+000	5.99991E-001	1.45870E-004	7	...........	1571.55
	2070	414.2	5.99976E-001	2.79968E-007	0.00000E+000	5.99991E-001	1.34198E-004	7	...........	1571.55
	2076	415.4	5.99963E-001	2.79206E-007	0.00000E+000	5.99991E-001	1.67046E-004	7	...........	1571.55
	2082	416.6	5.99991E-001	2.78926E-007	0.00000E+000	5.99991E-001	1.37783E-004	7	...........	1571.55
	2088	417.8	5.99971E-001	2.78121E-007	0.00000E+000	5.99991E-001	1.37366E-004	7	...........	1571.55
	2094	419	5.99953E-001	2.78567E-007	0.00000E+000	5.99991E-001	1.51289E-004	7	...........	1571.55
	2100	420.2	5.99959E-001	2.77188E-007	0.00000E+000	5.99991E-001	1.29030E-004	7	...........	1571.55
	2106	421.4	5.99961E-001	2.77582E-007	0.00000E+000	5.99991E-001	1.38867E-004	7	...........	1571.55
	2112	422.6	5.99974E-001	1.61795E-007	0.00000E+000	5.99991E-001	1.55208E-004	7	...........	1571.55
	2118	423.8	5.99985E-001	1.57588E-007	0.00000E+000	5.99991E-001	1.41452E-004	7	...........	1571.55
	2124	425	5.99961E-001	1.52886E-007	0.00000E+000	5.99991E-001	1.34532E-004	7	...........	1571.55
	2130	426.2	5.99973E-001	1.51494E-007	0.00000E+000	5.99991E-001	1.48455E-004	7	...........	1571.55
	2136	427.4	5.99972E-001	1.50026E-007	0.00000E+000	5.99991E-001	1.30197E-004	7	...........	1571.55
	2142	428.6	5.99955E-001	1.48518E-007	0.00000E+000	5.99991E-001	1.50706E-004	7	...........	1571.55
	2148	429.8	5.99973E-001	1.47336E-007	0.00000E+000	5.99991E-001	1.50539E-004	7	...........	1571.55
	2154	431	5.99971E-001	1.44021E-007	0.00000E+000	5.99991E-001	1.44453E-004	7	...........	1571.55
	2160	432.2	5.99947E-001	1.42778E-007	0.00000E+000	5.99991E-001	1.38284E-004	7	...........	1571.55
	2166	433.4	5.99957E-001	1.41793E-007	0.00000E+000	5.99991E-001	1.41035E-004	7	...........	1571.55
	2172	434.6	5.99968E-001	1.40362E-007	0.00000E+000	5.99991E-001	1.45870E-004	7	...........	1571.55
	2178	435.8	5.99970E-001	1.38867E-007	0.00000E+000	5.99991E-001	1.48788E-004	7	...........	1571.55
	2184	437	5.99983E-001	1.35515E-007	0.00000E+000	5.99991E-001	1.49538E-004	7	...........	1571.55
	2190	438.2	5.99977E-001	1.34950E-007	0.00000E+000	5.99991E-001	1.49288E-004	7	...........	1571.55
	2196	439.4	5.99919E-001	1.35097E-007	0.00000E+000	5.99991E-001	1.44786E-004	7	...........	1571.55
	2202	440.6	5.99975E-001	1.34099E-007	0.00000E+000	5.99991E-001	1.42702E-004	7	...........	1571.55
	2208	441.8	5.99965E-001	2.55055E-007	0.00000E+000	5.99991E-001	1.52206E-004	7	...........	1571.55
	2214	443	5.99956E-001	2.59385E-007	0.00000E+000	5.99991E-001	1.59960E-004	7	...........	1571.55
	2220	444.2	5.99953E-001	2.60115E-007	0.00000E+000	5.99991E-001	1.49205E-004	7	...........	1571.55
	2226	445.4	5.99956E-001	2.60985E-007	0.00000E+000	5.99991E-001	1.58126E-004	7	...........	1571.55
	2232	446.6	5.99941E-001	2.60759E-007	0.00000E+000	5.99991E-001	1.57459E-004	7	...........	1571.55
	2238	447.8	5.99938E-001	2.59919E-007	0.00000E+000	5.99991E-001	1.47954E-004	7	...........	1571.55
	2244	449	5.99998E-001	2.61867E-007	0.00000E+000	5.99991E-001	1.24027E-004	7	...........	1571.55
	2250	450.2	5.99989E-001	2.62632E-007	0.00000E+000	5.99991E-001	1.31781E-004	7	...........	1571.55
	2256	451.4	5.99980E-001	2.62059E-007	0.00000E+000	5.99991E-001	1.52290E-004	7	...........	1571.55
	2262	452.6	5.99970E-001	2.61829E-007	0.00000E+000	5.99991E-001	1.45453E-004	7	...........	1571.55
	2268	453.8	5.99979E-001	2.62961E-007	0.00000E+000	5.99991E-001	1.49205E-004	7	...........	1571.55
	2274	455	5.99946E-001	2.62767E-007	0.00000E+000	5.99991E-001	1.41035E-004	7	...........	1571.55
	2280	456.2	5.99973E-001	2.62439E-007	0.00000E+000	5.99991E-001	1.22193E-004	7	...........	1571.55
	2286	457.4	5.99955E-001	2.62804E-007	0.00000E+000	5.99991E-001	1.55791E-004	7	...........	1571.55
	2292	458.6	5.99982E-001	2.62023E-007	0.00000E+000	5.99991E-001	1.55958E-004	7	...........	1571.55
	2298	459.8	5.99928E-001	2.61037E-007	0.00000E+000	5.99991E-001	1.56875E-004	7	...........	1571.55
	2304	461	5.99947E-001	2.60644E-007	0.00000E+000	5.99991E-001	1.55374E-004	7	...........	1571.55
	2310	462.2	5.99975E-001	1.53337E-007	0.00000E+000	5.99991E-001	1.42035E-004	7	...........	1571.55
	2316	463.4	5.99983E-001	1.46611E-007	0.00000E+000	5.99991E-001	1.34198E-004	7	...........	1571.55
	2322	464.6	5.99972E-001	1.43863E-007	0.00000E+000	5.99991E-001	1.57959E-004	7	...........	1571.55
	2328	465.8	5.99962E-001	1.39920E-007	0.00000E+000	5.99991E-001	1.43452E-004	7	...........	1571.55
	2334	467	5.99974E-001	1.39570E-007	0.00000E+000	5.99991E-001	1.36366E-004	7	...........	1571.55
	2340	468.2	5.99974E-001	1.31510E-007	0.00000E+000	5.99991E-001	1.47621E-004	7	...........	1571.55
	2346	469.4	5.99985E-001	1.32274E-007	0.00000E+000	5.99991E-001	1.54624E-004	7	...........	1571.55
	2352	470.6	5.99951E-001	1.31344E-007	0.00000E+000	5.99991E-001	1.45120E-004	7	...........	1571.55
	2358	471.8	5.99948E-001	1.31713E-007	0.00000E+000	5.99991E-001	1.41618E-004	7	...........	1571.55
	2364	473	5.99967E-001	1.31618E-007	0.00000E+000	5.99991E-001	1.58709E-004	7	...........	1571.55
	2370	474.2	5.99959E-001	1.30915E-007	0.00000E+000	5.99991E-001	1.25695E-004	7	...........	1571.55
	2376	475.4	5.99965E-001	1.30376E-007	0.00000E+000	5.99991E-001	1.49372E-004	7	...........	1571.55
	2382	476.6	5.99953E-001	1.31805E-007	0.00000E+000	5.99991E-001	1.57875E-004	7	...........	1571.65
	2388	477.8	5.99961E-001	1.29636E-007	0.00000E+000	5.99991E-001	1.43119E-004	7	...........	1571.55
	2394	479	5.99973E-001	1.29203E-007	0.00000E+000	5.99991E-001	1.33615E-004	7	...........	1571.55
	2400	480.2	5.99949E-001	1.30136E-007	0.00000E+000	5.99991E-001	1.49955E-004	7	...........	1571.55
	2406	481.4	5.99980E-001	1.20651E-007	0.00000E+000	5.99991E-001	1.42285E-004	7	...........	1571.55
	2412	482.6	5.99957E-001	2.46222E-007	0.00000E+000	5.99991E-001	1.33198E-004	7	...........	1571.55
	2418	483.8	5.99988E-001	2.48912E-007	0.00000E+000	5.99991E-001	1.49372E-004	7	...........	1571.55
	2424	485	5.99976E-001	2.50622E-007	0.00000E+000	5.99991E-001	1.43452E-004	7	...........	1571.55
	2430	486.2	5.99948E-001	2.52218E-007	0.00000E+000	5.99991E-001	1.52790E-004	7	...........	1571.55
	2436	487.4	5.99980E-001	2.49571E-007	0.00000E+000	5.99991E-001	1.32114E-004	7	...........	1571.55
	2442	488.6	5.99955E-001	2.50062E-007	0.00000E+000	5.99991E-001	1.49205E-004	7	...........	1571.55
	2448	489.8	5.99985E-001	2.50514E-007	0.00000E+000	5.99991E-001	1.16024E-004	7	...........	1571.55
	2454	491	5.99977E-001	2.51185E-007	0.00000E+000	5.99991E-001	1.52373E-004	7	...........	1571.55
	2460	492.2	5.99958E-001	2.51950E-007	0.00000E+000	5.99991E-001	1.54040E-004	7	...........	1571.55
	2466	493.4	5.99967E-001	2.50813E-007	0.00000E+000	5.99991E-001	1.43619E-004	7	...........	1571.55
	2472	494.6	5.99992E-001	2.51945E-007	0.00000E+000	5.99991E-001	1.43452E-004	7	...........	1571.55
	2478	495.8	5.99960E-001	2.49668E-007	0.00000E+000	5.99991E-001	1.51623E-004	7	...........	1571.65
	2484	497	5.99944E-001	2.47558E-007	0.00000E+000	5.99991E-001	1.36116E-004	7	...........	1571.65
	2490	498.2	5.99974E-001	2.46377E-007	0.00000E+000	5.99991E-001	1.50039E-004	7	...........	1571.65
	2496	499.4	5.99960E-001	2.46108E-007	0.00000E+000	5.99991E-001	1.46537E-004	7	...........	1571.65
	2502	500.6	5.99953E-001	2.45474E-007	0.00000E+000	5.99991E-001	1.28196E-004	7	...........	1571.55
	2508	501.8	5.99953E-001	1.55051E-007	0.00000E+000	5.99991E-001	1.40034E-004	7	...........	1571.60
	2514	503	5.99946E-001	1.34651E-007	0.00000E+000	5.99991E-001	1.54707E-004	7	...........	1571.55
	2520	504.2	5.99984E-001	1.31124E-007	0.00000E+000	5.99991E-001	1.36283E-004	7	...........	1571.55
	2526	505.4	5.99964E-001	1.28201E-007	0.00000E+000	5.99991E-001	1.37200E-004	7	...........	1571.55
	2532	506.6	5.99934E-001	1.26328E-007	0.00000E+000	5.99991E-001	1.50706E-004	7	...........	1571.55
	2538	507.8	5.99978E-001	1.25141E-007	0.00000E+000	5.99991E-001	1.25361E-004	7	...........	1571.55
	2544	509	5.99952E-001	1.24129E-007	0.00000E+000	5.99991E-001	1.45453E-004	7	...........	1571.55
	2550	510.2	5.99947E-001	1.26818E-007	0.00000E+000	5.99991E-001	1.47954E-004	7	...........	1571.65
	2556	511.4	5.99945E-001	1.20666E-007	0.00000E+000	5.99991E-001	1.55458E-004	7	...........	1571.55
	2562	512.6	5.99967E-001	1.22088E-007	0.00000E+000	5.99991E-001	1.19192E-004	7	...........	1571.65
	2568	513.8	5.99939E-001	1.22456E-007	0.00000E+000	5.99991E-001	1.24861E-004	7	...........	1571.55
	2574	515	5.99960E-001	1.16315E-007	0.00000E+000	5.99991E-001	1.46037E-004	7	...........	1571.55
	2580	516.2	5.99943E-001	1.19232E-007	0.00000E+000	5.99991E-001	1.48455E-004	7	...........	1571.65
	2586	517.4	5.99979E-001	1.19761E-007	0.00000E+000	5.99991E-001	1.39117E-004	7	...........	1571.55
	2592	518.6	5.99943E-001	1.21189E-007	0.00000E+000	5.99991E-001	1.38284E-004	7	...........	1571.55
	2598	519.8	5.99981E-001	1.21846E-007	0.00000E+000	5.99991E-001	1.43119E-004	7	...........	1571.65
	2604	521	5.99967E-001	1.21171E-007	0.00000E+000	5.99991E-001	1.41535E-004	7	...........	1571.55
	2610	522.2	5.99952E-001	2.36869E-007	0.00000E+000	5.99991E-001	1.36783E-004	7	...........	1571.55
	2616	523.4	5.99979E-001	2.41858E-007	0.00000E+000	5.99991E-001	1.45203E-004	7	...........	1571.55
	2622	524.6	5.99942E-001	2.38481E-007	0.00000E+000	5.99991E-001	1.23110E-004	7	...........	1571.55
	2628	525.8	5.99958E-001	2.40552E-007	0.00000E+000	5.99991E-001	1.39784E-004	7	...........	1571.55
	2634	527	5.99948E-001	2.41200E-007	0.00000E+000	5.99991E-001	1.47454E-004	7	...........	1571.65
	2640	528.2	5.99922E-001	2.41394E-007	0.00000E+000	5.99991E-001	1.28363E-004	7	...........	1571.55
	2646	529.4	5.99964E-001	2.41402E-007	0.00000E+000	5.99991E-001	1.08521E-004	7	...........	1571.55
	2652	530.6	5.99978E-001	2.42244E-007	0.00000E+000	5.99991E-001	1.54541E-004	7	...........	1571.65
	2658	531.8	5.99945E-001	2.42540E-007	0.00000E+000	5.99991E-001	1.44536E-004	7	...........	1571.60
	2664	533	5.99953E-001	2.43243E-007	0.00000E+000	5.99991E-001	1.31864E-004	7	...........	1571.65
	2670	534.2	5.99969E-001	2.43343E-007	0.00000E+000	5.99991E-001	1.36866E-004	7	...........	1571.65
	2676	535.4	5.99961E-001	2.42088E-007	0.00000E+000	5.99991E-001	1.35449E-004	7	...........	1571.55
	2682	536.6	5.99970E-001	2.41387E-007	0.00000E+000	5.99991E-001	1.37366E-004	7	...........	1571.55
	2688	537.8	5.99996E-001	2.41602E-007	0.00000E+000	5.99991E-001	1.29363E-004	7	...........	1571.55
	2694	539	5.99972E-001	2.41579E-007	0.00000E+000	5.99991E-001	1.21193E-004	7	...........	1571.65
	2700	540.2	5.99966E-001	2.40498E-007	0.00000E+000	5.99991E-001	1.48038E-004	7	...........	1571.65
	2706	541.4	5.99976E-001	2.36825E-007	0.00000E+000	5.99991E-001	1.36783E-004	7	...........	1571.55
	2712	542.6	5.99947E-001	1.33247E-007	0.00000E+000	5.99991E-001	1.37283E-004	7	...........	1571.55
	2718	543.8	5.99968E-001	1.29772E-007	0.00000E+000	5.99991E-001	1.48038E-004	7	...........	1571.65
	2724	545	5.99967E-001	1.24735E-007	0.00000E+000	5.99991E-001	1.20442E-004	7	...........	1571.65
	2730	546.2	5.99966E-001	1.19683E-007	0.00000E+000	5.99991E-001	1.37450E-004	7	...........	1571.55
	2736	547.4	5.99968E-001	1.19809E-007	0.00000E+000	5.99991E-001	1.17608E-004	7	...........	1571.65
	2742	548.6	5.99966E-001	1.21849E-007	0.00000E+000	5.99991E-001	1.27279E-004	7	...........	1571.65
	2748	549.8	5.99977E-001	1.15318E-007	0.00000E+000	5.99991E-001	1.50205E-004	7	...........	1571.60
	2754	551	5.99961E-001	1.15490E-007	0.00000E+000	5.99991E-001	1.45870E-004	7	...........	1571.65
	2760	552.2	5.99929E-001	1.15707E-007	0.00000E+000	5.99991E-001	1.45453E-004	7	...........	1571.65
	2766	553.4	5.99933E-001	1.14550E-007	0.00000E+000	5.99991E-001	1.26862E-004	7	...........	1571.65
	2772	554.6	5.99940E-001	1.14642E-007	0.00000E+000	5.99991E-001	1.28696E-004	7	...........	1571.65
	2778	555.8	5.99963E-001	1.16157E-007	0.00000E+000	5.99991E-001	1.46037E-004	7	...........	1571.60
	2784	557	5.99980E-001	1.08004E-007	0.00000E+000	5.99991E-001	1.40701E-004	7	...........	1571.55
	2790	558.2	5.99952E-001	1.10024E-007	0.00000E+000	5.99991E-001	1.37950E-004	7	...........	1571.55
	2796	559.4	5.99981E-001	1.09946E-007	0.00000E+000	5.99991E-001	1.37867E-004	7	...........	1571.65
	2799	560	5.99947E-001	1.11274E-007	0.00000E+000	5.99991E-001	1.04686E-004	7	...........	1571.55