File: data/photocurrent/Photocurrent-MC.DTA
EXPLAIN
TAG	MULTI_STEP_CHRONOA
TITLE	LABEL	Chronoamperometry Scan	Test &Identifier
DATE	LABEL	5/8/2025	Date
TIME	LABEL	12:44:52	Time
PSTAT	PSTAT	IFC5000-19505	Potentiostat
NOTES	NOTES	1	&Notes...

AREA	QUANT	5.00000E-001	Sample &Area (cm^2)
ELECTRODETYPE	SELECTOR	0	Electrode Type
STRIPPING	TOGGLE	F	Used for Stripping
VSTEP0	POTEN	0.00000E+000	F	Step &1 (V)
TSTEP0	QUANT	2.80000E+002	Time &1 (s)
VSTEP1	POTEN	2.00000E-001	F	Step &2 (V)
TSTEP1	QUANT	2.80000E+002	Time &2 (s)
VSTEP2	POTEN	4.00000E-001	F	Step &3 (V)
TSTEP2	QUANT	2.80000E+002	Time &3 (s)
VSTEP3	POTEN	6.00000E-001	F	Step &4 (V)
TSTEP3	QUANT	2.80000E+002	Time &4 (s)
VSTEP4	POTEN	8.00000E-001	F	Step &5 (V)
TSTEP4	QUANT	2.80000E+002	Time &5 (s)
VSTEP5	POTEN	1.00000E+000	F	Step &6 (V)
TSTEP5	QUANT	2.80000E+002	Time &6 (s)
SAMPLETIME	QUANT	2.00000E-001	Sa&mple Period (s)
CONDIT	TWOPARAM	T	3.00000E+001	0.00000E+000	Conditionin&g	Time(s)	E(V)
DELAY	TWOPARAM	F	3.00000E+002	1.00000E-001	Init. De&lay	Time(s)	Stab.(mV/s)
EQDELAY	QUANT	0.00000E+000	Equil. &Time (s)
ILIMIT	QUANT	1.00000E+001	Limit &I (mA/cm^2)
IRANGE	QUANT	5.00000E+003	&Max Current (mA)
IRCOMP	SELECTOR	0	IRCom&p
PFCOR	QUANT	5.00000E+001	PF Corr. (ohm)
EOC	QUANT	0	Open Circuit (V)
PSTATMODEL	IQUANT	53	Pstat Model
PSTATSECTION	LABEL	IFC5000-19505	Pstat Section
PSTATSERIALNO	LABEL	19505	Pstat Serial Number
CTRLMODE	IQUANT	1	Control Mode
ELECTROMETER	IQUANT	0	RE=0 or CS=1
IESTAB	IQUANT	2	I/E Stability
CASPEED	IQUANT	4	Control Amp Speed
CONVENTION	IQUANT	1	Current Convention
ICHRANGE	IQUANT	2	Ich Range
ICHRANGEMODE	TOGGLE	F	Ich Auto Range
ICHOFFSETENABLE	TOGGLE	F	Ich Offset Enable
ICHOFFSET	QUANT	0	Ich Offset (V)
ICHFILTER	IQUANT	3	Ich Filter
VCHRANGE	IQUANT	2	Vch Range
VCHRANGEMODE	TOGGLE	F	Vch Auto Range
VCHOFFSETENABLE	TOGGLE	F	Vch Offset Enable
VCHOFFSET	QUANT	0	Vch Offset (V)
VCHFILTER	IQUANT	3	Vch Filter
IERANGELOWERLIMIT	IQUANT	7	I/E Range Lower Limit
IERANGEMODE	TOGGLE	T	I/E AutoRange
IERANGE	IQUANT	12	I/E Range
ACHSELECT	IQUANT	4	Ach Select
ACHRANGE	IQUANT	2	Ach Range
ACHOFFSETENABLE	TOGGLE	F	Ach Offset Enable
ACHOFFSET	QUANT	0	Ach Offset (V)
ACHFILTER	IQUANT	1	Ach Filter
SENSECABLEID	IQUANT	14	Sense Cable ID
PWRCABLEID	IQUANT	7	Power Cable ID
DCCALDATE	LABEL	8/4/2025	DC Calibration Date
ACCALDATE	LABEL	3/7/2024	AC Calibration Date
FRAMEWORKVERSION	LABEL	7.10.3	Framework Version
INSTRUMENTVERSION	LABEL	4.91	Instrument Version
COMMVERSION	LABEL	3.10	Communications Version
CPUPLDVERSION	LABEL	5.50	CPU PLD Version
CTRLPLDVERSION	LABEL	0.00	CTRL PLD Version
PSTATPLDVERSION	LABEL	0.00	PSTAT PLD Version
Curve	TABLE	7493
	Pt	T	Vf	Im	Vu	Sig	Ach	IERange	Over	Temp
	#	s	V vs. Ref.	A	V	V	V	#	bits	deg C
	0	0.2	-5.42297E-004	-8.63387E-004	0.00000E+000	0.00000E+000	-4.98494E-004	12	...........	1573.18
	15	3.2	-5.19790E-004	2.87863E-008	0.00000E+000	0.00000E+000	-4.90073E-004	7	...........	1572.60
	30	6.2	-5.17873E-004	2.00154E-008	0.00000E+000	0.00000E+000	-4.96243E-004	7	...........	1572.60
	45	9.2	-5.38713E-004	1.19244E-008	0.00000E+000	0.00000E+000	-5.00745E-004	7	...........	1572.60
	60	12.2	-5.46299E-004	1.22443E-008	0.00000E+000	0.00000E+000	-5.10832E-004	7	...........	1572.60
	75	15.2	-5.53634E-004	1.04658E-008	0.00000E+000	0.00000E+000	-5.04079E-004	7	...........	1572.60
	90	18.2	-5.28543E-004	9.72042E-009	0.00000E+000	0.00000E+000	-5.08665E-004	7	...........	1572.60
	105	21.2	-5.13121E-004	-7.03887E-008	0.00000E+000	0.00000E+000	-5.03246E-004	7	...........	1572.60
	120	24.2	-5.61470E-004	-7.04568E-008	0.00000E+000	0.00000E+000	-5.38261E-004	7	...........	1572.60
	135	27.2	-5.40963E-004	-6.76757E-008	0.00000E+000	0.00000E+000	-5.11416E-004	7	...........	1572.60
	150	30.2	-5.90563E-004	-6.47500E-008	0.00000E+000	0.00000E+000	-5.11416E-004	7	...........	1572.60
	165	33.2	-5.23375E-004	-6.31759E-008	0.00000E+000	0.00000E+000	-4.69898E-004	7	...........	1572.60
	180	36.2	-5.27376E-004	-6.18083E-008	0.00000E+000	0.00000E+000	-4.85405E-004	7	...........	1572.60
	195	39.2	-5.79893E-004	-6.45324E-008	0.00000E+000	0.00000E+000	-4.90407E-004	7	...........	1572.60
	210	42.2	-5.48299E-004	1.95426E-008	0.00000E+000	0.00000E+000	-4.72983E-004	7	...........	1572.60
	225	45.2	-5.55385E-004	1.81395E-008	0.00000E+000	0.00000E+000	-5.08248E-004	7	...........	1572.60
	240	48.2	-5.27292E-004	1.79150E-008	0.00000E+000	0.00000E+000	-4.98577E-004	7	...........	1572.60
	255	51.2	-5.30794E-004	1.66489E-008	0.00000E+000	0.00000E+000	-4.94659E-004	7	...........	1572.60
	270	54.2	-5.37462E-004	1.65939E-008	0.00000E+000	0.00000E+000	-4.97827E-004	7	...........	1572.60
	285	57.2	-5.23041E-004	1.56817E-008	0.00000E+000	0.00000E+000	-5.12583E-004	7	...........	1572.60
	300	60.2	-5.30127E-004	1.60002E-008	0.00000E+000	0.00000E+000	-4.73816E-004	7	...........	1572.60
	315	63.2	-5.62054E-004	-4.94456E-008	0.00000E+000	0.00000E+000	-4.99161E-004	7	...........	1572.60
	330	66.2	-5.49883E-004	-4.81141E-008	0.00000E+000	0.00000E+000	-4.99911E-004	7	...........	1572.60
	345	69.2	-5.83811E-004	-4.71630E-008	0.00000E+000	0.00000E+000	-4.84321E-004	7	...........	1572.60
	360	72.2	-5.32794E-004	-4.70267E-008	0.00000E+000	0.00000E+000	-4.83654E-004	7	...........	1572.60
	375	75.2	-5.59136E-004	-4.54846E-008	0.00000E+000	0.00000E+000	-4.86822E-004	7	...........	1572.60
	390	78.2	-5.44381E-004	-4.44062E-008	0.00000E+000	0.00000E+000	-5.06831E-004	7	...........	1572.60
	405	81.2	-5.36795E-004	2.71336E-008	0.00000E+000	0.00000E+000	-5.04163E-004	7	...........	1572.60
	420	84.2	-5.21374E-004	2.52932E-008	0.00000E+000	0.00000E+000	-5.03996E-004	7	...........	1572.60
	435	87.2	-5.30794E-004	2.34549E-008	0.00000E+000	0.00000E+000	-5.23338E-004	7	...........	1572.60
	450	90.2	-5.71307E-004	2.45555E-008	0.00000E+000	0.00000E+000	-4.85155E-004	7	...........	1572.60
	465	93.2	-5.03702E-004	2.40522E-008	0.00000E+000	0.00000E+000	-4.98660E-004	7	...........	1572.60
	480	96.2	-5.66638E-004	2.39854E-008	0.00000E+000	0.00000E+000	-4.81986E-004	7	...........	1572.60
	495	99.2	-5.56385E-004	2.32199E-008	0.00000E+000	0.00000E+000	-4.95742E-004	7	...........	1572.60
	510	102.2	-5.57636E-004	-3.48969E-008	0.00000E+000	0.00000E+000	-5.09165E-004	7	...........	1572.60
	525	105.2	-5.02284E-004	-3.44950E-008	0.00000E+000	0.00000E+000	-5.06164E-004	7	...........	1572.60
	540	108.2	-5.04785E-004	-3.45938E-008	0.00000E+000	0.00000E+000	-5.20503E-004	7	...........	1572.60
	555	111.2	-5.28126E-004	-3.45298E-008	0.00000E+000	0.00000E+000	-4.91991E-004	7	...........	1572.60
	570	114.2	-5.28626E-004	-3.34667E-008	0.00000E+000	0.00000E+000	-5.23588E-004	7	...........	1572.60
	585	117.2	-5.22291E-004	-3.43970E-008	0.00000E+000	0.00000E+000	-4.87906E-004	7	...........	1572.60
	600	120.2	-5.63721E-004	-3.31024E-008	0.00000E+000	0.00000E+000	-4.84654E-004	7	...........	1572.60
	615	123.2	-5.32461E-004	3.01532E-008	0.00000E+000	0.00000E+000	-4.99411E-004	7	...........	1572.60
	630	126.2	-5.71057E-004	2.88927E-008	0.00000E+000	0.00000E+000	-5.26423E-004	7	...........	1572.60
	645	129.2	-5.20207E-004	2.73867E-008	0.00000E+000	0.00000E+000	-4.88656E-004	7	...........	1572.60
	660	132.2	-5.47716E-004	2.78644E-008	0.00000E+000	0.00000E+000	-5.21254E-004	7	...........	1572.60
	675	135.2	-5.34128E-004	2.86619E-008	0.00000E+000	0.00000E+000	-5.04496E-004	7	...........	1572.60
	690	138.2	-5.50216E-004	2.84234E-008	0.00000E+000	0.00000E+000	-5.35677E-004	7	...........	1572.60
	705	141.2	-5.07369E-004	-2.44962E-008	0.00000E+000	0.00000E+000	-4.72983E-004	7	...........	1572.60
	720	144.2	-5.01034E-004	-2.67907E-008	0.00000E+000	0.00000E+000	-5.05497E-004	7	...........	1572.60
	735	147.2	-5.35378E-004	-2.52729E-008	0.00000E+000	0.00000E+000	-5.05413E-004	7	...........	1572.60
	750	150.2	-5.25458E-004	-2.68866E-008	0.00000E+000	0.00000E+000	-4.80402E-004	7	...........	1572.60
	765	153.2	-5.10620E-004	-2.63297E-008	0.00000E+000	0.00000E+000	-5.01328E-004	7	...........	1572.60
	780	156.2	-5.57052E-004	-2.57818E-008	0.00000E+000	0.00000E+000	-4.92491E-004	7	...........	1572.60
	795	159.2	-5.22958E-004	-2.49489E-008	0.00000E+000	0.00000E+000	-5.00411E-004	7	...........	1572.60
	810	162.2	-5.15955E-004	3.16015E-008	0.00000E+000	0.00000E+000	-5.15168E-004	7	...........	1572.60
	825	165.2	-5.52801E-004	3.24525E-008	0.00000E+000	0.00000E+000	-5.16501E-004	7	...........	1572.60
	840	168.2	-5.38796E-004	3.14200E-008	0.00000E+000	0.00000E+000	-4.79069E-004	7	...........	1572.60
	855	171.2	-5.18206E-004	3.05349E-008	0.00000E+000	0.00000E+000	-5.01828E-004	7	...........	1572.60
	870	174.2	-5.07453E-004	2.96992E-008	0.00000E+000	0.00000E+000	-5.06247E-004	7	...........	1572.60
	885	177.2	-5.12454E-004	3.04988E-008	0.00000E+000	0.00000E+000	-4.81486E-004	7	...........	1572.60
	900	180.2	-5.29960E-004	3.00649E-008	0.00000E+000	0.00000E+000	-4.97910E-004	7	...........	1572.60
	915	183.2	-5.45548E-004	-2.09246E-008	0.00000E+000	0.00000E+000	-5.12583E-004	7	...........	1572.60
	930	186.2	-5.54134E-004	-1.99331E-008	0.00000E+000	0.00000E+000	-5.00745E-004	7	...........	1572.60
	945	189.2	-5.31210E-004	-2.08405E-008	0.00000E+000	0.00000E+000	-4.94909E-004	7	...........	1572.60
	960	192.2	-5.07619E-004	-1.98782E-008	0.00000E+000	0.00000E+000	-5.07831E-004	7	...........	1572.60
	975	195.2	-5.19957E-004	-2.03962E-008	0.00000E+000	0.00000E+000	-5.12083E-004	7	...........	1572.60
	990	198.2	-5.08536E-004	-2.10115E-008	0.00000E+000	0.00000E+000	-4.96660E-004	7	...........	1572.60
	1005	201.2	-5.03952E-004	3.32827E-008	0.00000E+000	0.00000E+000	-4.80486E-004	7	...........	1572.60
	1020	204.2	-5.51383E-004	3.32020E-008	0.00000E+000	0.00000E+000	-4.92324E-004	7	...........	1572.60
	1035	207.2	-5.27459E-004	3.26430E-008	0.00000E+000	0.00000E+000	-4.97910E-004	7	...........	1572.60
	1050	210.2	-5.12788E-004	3.25540E-008	0.00000E+000	0.00000E+000	-5.21087E-004	7	...........	1572.60
	1065	213.2	-5.70973E-004	3.22272E-008	0.00000E+000	0.00000E+000	-5.10999E-004	7	...........	1572.60
	1080	216.2	-5.63221E-004	3.30310E-008	0.00000E+000	0.00000E+000	-4.93325E-004	7	...........	1572.60
	1095	219.2	-5.75058E-004	3.22085E-008	0.00000E+000	0.00000E+000	-4.99244E-004	7	...........	1572.60
	1110	222.2	-5.55718E-004	-1.43056E-008	0.00000E+000	0.00000E+000	-4.83320E-004	7	...........	1572.60
	1125	225.2	-5.37629E-004	-1.56106E-008	0.00000E+000	0.00000E+000	-4.88906E-004	7	...........	1572.60
	1140	228.2	-5.52551E-004	-1.70610E-008	0.00000E+000	0.00000E+000	-5.03829E-004	7	...........	1572.60
	1155	231.2	-5.24375E-004	-1.57121E-008	0.00000E+000	0.00000E+000	-4.82820E-004	7	...........	1572.60
	1170	234.2	-5.59970E-004	-1.64999E-008	0.00000E+000	0.00000E+000	-5.09498E-004	7	...........	1572.60
	1185	237.2	-5.95147E-004	-1.56245E-008	0.00000E+000	0.00000E+000	-5.08665E-004	7	...........	1572.60
	1200	240.2	-5.25709E-004	-1.56864E-008	0.00000E+000	0.00000E+000	-4.85488E-004	7	...........	1572.60
	1215	243.2	-5.45132E-004	3.48568E-008	0.00000E+000	0.00000E+000	-5.08081E-004	7	...........	1572.60
	1230	246.2	-5.39963E-004	3.47671E-008	0.00000E+000	0.00000E+000	-5.05997E-004	7	...........	1572.60
	1245	249.2	-5.17539E-004	3.23141E-008	0.00000E+000	0.00000E+000	-4.88323E-004	7	...........	1572.60
	1260	252.2	-5.52134E-004	3.30275E-008	0.00000E+000	0.00000E+000	-5.11416E-004	7	...........	1572.60
	1275	255.2	-5.23875E-004	3.32827E-008	0.00000E+000	0.00000E+000	-4.83237E-004	7	...........	1572.60
	1290	258.2	-5.14622E-004	3.32646E-008	0.00000E+000	0.00000E+000	-4.97660E-004	7	...........	1572.60
	1305	261.2	-5.19207E-004	-8.34218E-009	0.00000E+000	0.00000E+000	-5.11916E-004	7	...........	1572.60
	1320	264.2	-5.64971E-004	-1.24102E-008	0.00000E+000	0.00000E+000	-5.02079E-004	7	...........	1572.60
	1335	267.2	-5.07369E-004	-1.24283E-008	0.00000E+000	0.00000E+000	-5.12416E-004	7	...........	1572.60
	1350	270.2	-5.48633E-004	-1.26807E-008	0.00000E+000	0.00000E+000	-5.18502E-004	7	...........	1572.60
	1365	273.2	-5.45132E-004	-1.19444E-008	0.00000E+000	0.00000E+000	-4.80819E-004	7	...........	1572.60
	1380	276.2	-4.97366E-004	-1.49494E-008	0.00000E+000	0.00000E+000	-4.88990E-004	7	...........	1572.60
	1395	279.2	-5.44215E-004	-1.23240E-008	0.00000E+000	0.00000E+000	-5.16168E-004	7	...........	1572.60
	1410	282.2	1.99420E-001	4.80101E-007	0.00000E+000	2.00014E-001	-4.91991E-004	7	...........	1572.60
	1425	285.2	1.99404E-001	3.11902E-007	0.00000E+000	2.00014E-001	-4.94492E-004	7	...........	1572.60
	1440	288.2	1.99431E-001	2.49779E-007	0.00000E+000	2.00014E-001	-4.94825E-004	7	...........	1572.60
	1455	291.2	1.99425E-001	2.21190E-007	0.00000E+000	2.00014E-001	-5.16918E-004	7	...........	1572.60
	1470	294.2	1.99394E-001	2.02381E-007	0.00000E+000	2.00014E-001	-4.99744E-004	7	...........	1572.60
	1485	297.2	1.99436E-001	1.87649E-007	0.00000E+000	2.00014E-001	-5.25922E-004	7	...........	1572.60
	1500	300.2	1.99411E-001	1.79624E-007	0.00000E+000	2.00014E-001	-5.07331E-004	7	...........	1572.60
	1515	303.2	1.99422E-001	7.20381E-008	0.00000E+000	2.00014E-001	-5.08748E-004	7	...........	1572.60
	1530	306.2	1.99407E-001	6.45514E-008	0.00000E+000	2.00014E-001	-4.85488E-004	7	...........	1572.60
	1545	309.2	1.99408E-001	5.78955E-008	0.00000E+000	2.00014E-001	-5.00995E-004	7	...........	1572.60
	1560	312.2	1.99433E-001	5.30438E-008	0.00000E+000	2.00014E-001	-5.00328E-004	7	...........	1572.60
	1575	315.2	1.99398E-001	4.94207E-008	0.00000E+000	2.00014E-001	-5.18419E-004	7	...........	1572.60
	1590	318.2	1.99428E-001	4.56989E-008	0.00000E+000	2.00014E-001	-4.98994E-004	7	...........	1572.60
	1605	321.2	1.99422E-001	4.32585E-008	0.00000E+000	2.00014E-001	-4.91574E-004	7	...........	1572.60
	1620	324.2	1.99417E-001	1.41550E-007	0.00000E+000	2.00014E-001	-4.72566E-004	7	...........	1572.60
	1635	327.2	1.99431E-001	1.39101E-007	0.00000E+000	2.00014E-001	-4.90824E-004	7	...........	1572.60
	1650	330.2	1.99375E-001	1.36382E-007	0.00000E+000	2.00014E-001	-5.08998E-004	7	...........	1572.60
	1665	333.2	1.99386E-001	1.32171E-007	0.00000E+000	2.00014E-001	-5.14000E-004	7	...........	1572.60
	1680	336.2	1.99442E-001	1.29850E-007	0.00000E+000	2.00014E-001	-5.07664E-004	7	...........	1572.70
	1695	339.2	1.99447E-001	1.27094E-007	0.00000E+000	2.00014E-001	-5.30257E-004	7	...........	1572.60
	1710	342.2	1.99400E-001	3.77366E-008	0.00000E+000	2.00014E-001	-4.75150E-004	7	...........	1572.60
	1725	345.2	1.99421E-001	3.33605E-008	0.00000E+000	2.00014E-001	-5.02329E-004	7	...........	1572.60
	1740	348.2	1.99435E-001	3.18879E-008	0.00000E+000	2.00014E-001	-4.71899E-004	7	...........	1572.60
	1755	351.2	1.99442E-001	2.95956E-008	0.00000E+000	2.00014E-001	-4.90490E-004	7	...........	1572.60
	1770	354.2	1.99401E-001	2.92994E-008	0.00000E+000	2.00014E-001	-5.01828E-004	7	...........	1572.60
	1785	357.2	1.99389E-001	2.71246E-008	0.00000E+000	2.00014E-001	-5.16085E-004	7	...........	1572.60
	1800	360.2	1.99428E-001	2.69271E-008	0.00000E+000	2.00014E-001	-5.03412E-004	7	...........	1572.60
	1815	363.2	1.99418E-001	1.20543E-007	0.00000E+000	2.00014E-001	-4.85238E-004	7	...........	1572.60
	1830	366.2	1.99409E-001	1.18258E-007	0.00000E+000	2.00014E-001	-5.10666E-004	7	...........	1572.60
	1845	369.2	1.99438E-001	1.17285E-007	0.00000E+000	2.00014E-001	-4.90240E-004	7	...........	1572.60
	1860	372.2	1.99397E-001	1.16527E-007	0.00000E+000	2.00014E-001	-5.30091E-004	7	...........	1572.60
	1875	375.2	1.99422E-001	1.14829E-007	0.00000E+000	2.00014E-001	-5.40595E-004	7	...........	1572.60
	1890	378.2	1.99395E-001	1.13617E-007	0.00000E+000	2.00014E-001	-4.92908E-004	7	...........	1572.60
	1905	381.2	1.99405E-001	1.12740E-007	0.00000E+000	2.00014E-001	-5.22337E-004	7	...........	1572.60
	1920	384.2	1.99432E-001	2.54587E-008	0.00000E+000	2.00014E-001	-5.14917E-004	7	...........	1572.60
	1935	387.2	1.99419E-001	2.34730E-008	0.00000E+000	2.00014E-001	-5.12333E-004	7	...........	1572.60
	1950	390.2	1.99361E-001	2.28000E-008	0.00000E+000	2.00014E-001	-5.01495E-004	7	...........	1572.60
	1965	393.2	1.99420E-001	2.23327E-008	0.00000E+000	2.00014E-001	-4.94992E-004	7	...........	1572.60
	1980	396.2	1.99396E-001	2.15436E-008	0.00000E+000	2.00014E-001	-4.97910E-004	7	...........	1572.60
	1995	399.2	1.99391E-001	2.10931E-008	0.00000E+000	2.00014E-001	-5.10666E-004	7	...........	1572.60
	2010	402.2	1.99389E-001	1.11826E-007	0.00000E+000	2.00014E-001	-5.03496E-004	7	...........	1572.60
	2025	405.2	1.99431E-001	1.09544E-007	0.00000E+000	2.00014E-001	-5.11499E-004	7	...........	1572.60
	2040	408.2	1.99403E-001	1.08036E-007	0.00000E+000	2.00014E-001	-4.84571E-004	7	...........	1572.60
	2055	411.2	1.99419E-001	1.07256E-007	0.00000E+000	2.00014E-001	-4.82904E-004	7	...........	1572.60
	2070	414.2	1.99418E-001	1.06418E-007	0.00000E+000	2.00014E-001	-4.96409E-004	7	...........	1572.60
	2085	417.2	1.99429E-001	1.06069E-007	0.00000E+000	2.00014E-001	-4.77651E-004	7	...........	1572.60
	2100	420.2	1.99375E-001	1.04881E-007	0.00000E+000	2.00014E-001	-5.24755E-004	7	...........	1572.60
	2115	423.2	1.99410E-001	2.25142E-008	0.00000E+000	2.00014E-001	-5.05914E-004	7	...........	1572.60
	2130	426.2	1.99425E-001	2.02970E-008	0.00000E+000	2.00014E-001	-5.03829E-004	7	...........	1572.60
	2145	429.2	1.99408E-001	1.89342E-008	0.00000E+000	2.00014E-001	-5.22671E-004	7	...........	1572.60
	2160	432.2	1.99391E-001	1.92694E-008	0.00000E+000	2.00014E-001	-4.96826E-004	7	...........	1572.60
	2175	435.2	1.99396E-001	1.81513E-008	0.00000E+000	2.00014E-001	-4.94075E-004	7	...........	1572.60
	2190	438.2	1.99440E-001	1.80005E-008	0.00000E+000	2.00014E-001	-5.04830E-004	7	...........	1572.60
	2205	441.2	1.99401E-001	1.76445E-008	0.00000E+000	2.00014E-001	-5.13500E-004	7	...........	1572.60
	2220	444.2	1.99414E-001	1.03827E-007	0.00000E+000	2.00014E-001	-5.00244E-004	7	...........	1572.60
	2235	447.2	1.99455E-001	1.02126E-007	0.00000E+000	2.00014E-001	-5.07831E-004	7	...........	1572.60
	2250	450.2	1.99401E-001	1.01034E-007	0.00000E+000	2.00014E-001	-5.16418E-004	7	...........	1572.60
	2265	453.2	1.99439E-001	1.00317E-007	0.00000E+000	2.00014E-001	-4.75150E-004	7	...........	1572.60
	2280	456.2	1.99421E-001	9.94438E-008	0.00000E+000	2.00014E-001	-4.84154E-004	7	...........	1572.60
	2295	459.2	1.99423E-001	9.89530E-008	0.00000E+000	2.00014E-001	-5.19503E-004	7	...........	1572.60
	2310	462.2	1.99435E-001	2.19830E-008	0.00000E+000	2.00014E-001	-4.97660E-004	7	...........	1572.60
	2325	465.2	1.99386E-001	1.90969E-008	0.00000E+000	2.00014E-001	-4.91491E-004	7	...........	1572.60
	2340	468.2	1.99435E-001	1.73240E-008	0.00000E+000	2.00014E-001	-4.73566E-004	7	...........	1572.60
	2355	471.2	1.99396E-001	1.72092E-008	0.00000E+000	2.00014E-001	-4.81069E-004	7	...........	1572.60
	2370	474.2	1.99381E-001	1.45241E-008	0.00000E+000	2.00014E-001	-5.30674E-004	7	...........	1572.60
	2385	477.2	1.99417E-001	1.61900E-008	0.00000E+000	2.00014E-001	-4.90240E-004	7	...........	1572.60
	2400	480.2	1.99438E-001	1.61649E-008	0.00000E+000	2.00014E-001	-5.32258E-004	7	...........	1572.60
	2415	483.2	1.99426E-001	9.87110E-008	0.00000E+000	2.00014E-001	-5.17168E-004	7	...........	1572.60
	2430	486.2	1.99388E-001	9.74519E-008	0.00000E+000	2.00014E-001	-4.71148E-004	7	...........	1572.60
	2445	489.2	1.99446E-001	9.80011E-008	0.00000E+000	2.00014E-001	-4.87322E-004	7	...........	1572.60
	2460	492.2	1.99425E-001	9.76549E-008	0.00000E+000	2.00014E-001	-5.03913E-004	7	...........	1572.60
	2475	495.2	1.99426E-001	9.64590E-008	0.00000E+000	2.00014E-001	-5.00161E-004	7	...........	1572.60
	2490	498.2	1.99429E-001	9.71793E-008	0.00000E+000	2.00014E-001	-5.06080E-004	7	...........	1572.60
	2505	501.2	1.99423E-001	9.51853E-008	0.00000E+000	2.00014E-001	-5.14167E-004	7	...........	1572.60
	2520	504.2	1.99403E-001	1.74345E-008	0.00000E+000	2.00014E-001	-5.14584E-004	7	...........	1572.60
	2535	507.2	1.99432E-001	1.66238E-008	0.00000E+000	2.00014E-001	-5.23338E-004	7	...........	1572.60
	2550	510.2	1.99434E-001	1.65661E-008	0.00000E+000	2.00014E-001	-5.04830E-004	7	...........	1572.60
	2565	513.2	1.99430E-001	1.58083E-008	0.00000E+000	2.00014E-001	-5.08915E-004	7	...........	1572.60
	2580	516.2	1.99423E-001	1.49232E-008	0.00000E+000	2.00014E-001	-5.03246E-004	7	...........	1572.60
	2595	519.2	1.99428E-001	1.49538E-008	0.00000E+000	2.00014E-001	-4.89823E-004	7	...........	1572.60
	2610	522.2	1.99418E-001	9.54140E-008	0.00000E+000	2.00014E-001	-4.99828E-004	7	...........	1572.60
	2625	525.2	1.99449E-001	9.43085E-008	0.00000E+000	2.00014E-001	-4.91657E-004	7	...........	1572.60
	2640	528.2	1.99411E-001	9.39275E-008	0.00000E+000	2.00014E-001	-5.03829E-004	7	...........	1572.60
	2655	531.2	1.99423E-001	9.37586E-008	0.00000E+000	2.00014E-001	-5.02662E-004	7	...........	1572.60
	2670	534.2	1.99430E-001	9.22248E-008	0.00000E+000	2.00014E-001	-4.72899E-004	7	...........	1572.60
	2685	537.2	1.99411E-001	9.20892E-008	0.00000E+000	2.00014E-001	-5.00244E-004	7	...........	1572.60
	2700	540.2	1.99427E-001	9.18848E-008	0.00000E+000	2.00014E-001	-4.86155E-004	7	...........	1572.60
	2715	543.2	1.99432E-001	1.76723E-008	0.00000E+000	2.00014E-001	-5.13000E-004	7	...........	1572.60
	2730	546.2	1.99429E-001	1.62727E-008	0.00000E+000	2.00014E-001	-4.83821E-004	7	...........	1572.60
	2745	549.2	1.99431E-001	1.42335E-008	0.00000E+000	2.00014E-001	-5.00078E-004	7	...........	1572.60
	2760	552.2	1.99436E-001	1.52138E-008	0.00000E+000	2.00014E-001	-5.04413E-004	7	...........	1572.60
	2775	555.2	1.99415E-001	1.40735E-008	0.00000E+000	2.00014E-001	-4.93075E-004	7	...........	1572.60
	2790	558.2	1.99419E-001	1.40040E-008	0.00000E+000	2.00014E-001	-4.92408E-004	7	...........	1572.60
	2805	561.2	3.99289E-001	7.88409E-007	0.00000E+000	3.99977E-001	-4.93908E-004	7	...........	1572.60
	2820	564.2	3.99310E-001	4.85320E-007	0.00000E+000	3.99977E-001	-5.08998E-004	7	...........	1572.60
	2835	567.2	3.99233E-001	3.95039E-007	0.00000E+000	3.99977E-001	-5.17669E-004	7	...........	1572.60
	2850	570.2	3.99273E-001	3.53243E-007	0.00000E+000	3.99977E-001	-4.90740E-004	7	...........	1572.60
	2865	573.2	3.99270E-001	3.24116E-007	0.00000E+000	3.99977E-001	-5.15584E-004	7	...........	1572.60
	2880	576.2	3.99288E-001	3.01081E-007	0.00000E+000	3.99977E-001	-5.23838E-004	7	...........	1572.60
	2895	579.2	3.99279E-001	2.91798E-007	0.00000E+000	3.99977E-001	-4.83404E-004	7	...........	1572.60
	2910	582.2	3.99317E-001	1.39543E-007	0.00000E+000	3.99977E-001	-4.83571E-004	7	...........	1572.60
	2925	585.2	3.99300E-001	1.23491E-007	0.00000E+000	3.99977E-001	-4.91324E-004	7	...........	1572.60
	2940	588.2	3.99247E-001	1.14974E-007	0.00000E+000	3.99977E-001	-4.72566E-004	7	...........	1572.60
	2955	591.2	3.99296E-001	1.07722E-007	0.00000E+000	3.99977E-001	-4.95242E-004	7	...........	1572.60
	2970	594.2	3.99310E-001	1.03579E-007	0.00000E+000	3.99977E-001	-5.03079E-004	7	...........	1572.60
	2985	597.2	3.99321E-001	9.87472E-008	0.00000E+000	3.99977E-001	-4.81736E-004	7	...........	1572.60
	3000	600.2	3.99300E-001	9.63415E-008	0.00000E+000	3.99977E-001	-5.17585E-004	7	...........	1572.60
	3015	603.2	3.99311E-001	2.50450E-007	0.00000E+000	3.99977E-001	-4.94242E-004	7	...........	1572.60
	3030	606.2	3.99277E-001	2.43977E-007	0.00000E+000	3.99977E-001	-4.91324E-004	7	...........	1572.60
	3045	609.2	3.99283E-001	2.39845E-007	0.00000E+000	3.99977E-001	-4.79402E-004	7	...........	1572.60
	3060	612.2	3.99284E-001	2.37264E-007	0.00000E+000	3.99977E-001	-5.05663E-004	7	...........	1572.60
	3075	615.2	3.99275E-001	2.33955E-007	0.00000E+000	3.99977E-001	-5.02329E-004	7	...........	1572.60
	3090	618.2	3.99281E-001	2.34531E-007	0.00000E+000	3.99977E-001	-4.96409E-004	7	...........	1572.60
	3105	621.2	3.99314E-001	2.28370E-007	0.00000E+000	3.99977E-001	-5.01828E-004	7	...........	1572.60
	3120	624.2	3.99314E-001	8.37577E-008	0.00000E+000	3.99977E-001	-4.88072E-004	7	...........	1572.60
	3135	627.2	3.99309E-001	7.90889E-008	0.00000E+000	3.99977E-001	-5.03579E-004	7	...........	1572.60
	3150	630.2	3.99270E-001	7.90966E-008	0.00000E+000	3.99977E-001	-5.07664E-004	7	...........	1572.60
	3165	633.2	3.99301E-001	7.69794E-008	0.00000E+000	3.99977E-001	-4.94242E-004	7	...........	1572.60
	3180	636.2	3.99260E-001	7.51696E-008	0.00000E+000	3.99977E-001	-4.97660E-004	7	...........	1572.60
	3195	639.2	3.99239E-001	7.20965E-008	0.00000E+000	3.99977E-001	-5.10749E-004	7	...........	1572.60
	3210	642.2	3.99301E-001	2.20768E-007	0.00000E+000	3.99977E-001	-4.96326E-004	7	...........	1572.60
	3225	645.2	3.99281E-001	2.18406E-007	0.00000E+000	3.99977E-001	-4.84571E-004	7	...........	1572.60
	3240	648.2	3.99304E-001	2.15880E-007	0.00000E+000	3.99977E-001	-5.13250E-004	7	...........	1572.60
	3255	651.2	3.99315E-001	2.14178E-007	0.00000E+000	3.99977E-001	-4.76067E-004	7	...........	1572.60
	3270	654.2	3.99286E-001	2.12489E-007	0.00000E+000	3.99977E-001	-5.09248E-004	7	...........	1572.60
	3285	657.2	3.99303E-001	2.14452E-007	0.00000E+000	3.99977E-001	-5.19586E-004	7	...........	1572.60
	3300	660.2	3.99292E-001	2.07870E-007	0.00000E+000	3.99977E-001	-5.01161E-004	7	...........	1572.60
	3315	663.2	3.99289E-001	7.00837E-008	0.00000E+000	3.99977E-001	-5.01495E-004	7	...........	1572.60
	3330	666.2	3.99303E-001	6.16381E-008	0.00000E+000	3.99977E-001	-5.00661E-004	7	...........	1572.60
	3345	669.2	3.99292E-001	5.90239E-008	0.00000E+000	3.99977E-001	-4.97410E-004	7	...........	1572.60
	3360	672.2	3.99282E-001	5.82111E-008	0.00000E+000	3.99977E-001	-5.21754E-004	7	...........	1572.60
	3375	675.2	3.99268E-001	5.37808E-008	0.00000E+000	3.99977E-001	-4.95742E-004	7	...........	1572.60
	3390	678.2	3.99267E-001	5.20677E-008	0.00000E+000	3.99977E-001	-4.95409E-004	7	...........	1572.60
	3405	681.2	3.99269E-001	5.00368E-008	0.00000E+000	3.99977E-001	-4.89740E-004	7	...........	1572.60
	3420	684.2	3.99324E-001	1.92240E-007	0.00000E+000	3.99977E-001	-4.80569E-004	7	...........	1572.60
	3435	687.2	3.99260E-001	1.90004E-007	0.00000E+000	3.99977E-001	-5.11166E-004	7	...........	1572.60
	3450	690.2	3.99305E-001	1.88435E-007	0.00000E+000	3.99977E-001	-4.92408E-004	7	...........	1572.60
	3465	693.2	3.99289E-001	1.87231E-007	0.00000E+000	3.99977E-001	-4.97910E-004	7	...........	1572.60
	3480	696.2	3.99303E-001	1.85460E-007	0.00000E+000	3.99977E-001	-5.11583E-004	7	...........	1572.60
	3495	699.2	3.99297E-001	1.83684E-007	0.00000E+000	3.99977E-001	-5.34759E-004	7	...........	1572.60
	3510	702.2	3.99273E-001	1.82187E-007	0.00000E+000	3.99977E-001	-5.09749E-004	7	...........	1572.60
	3525	705.2	3.99313E-001	4.71771E-008	0.00000E+000	3.99977E-001	-4.98244E-004	7	...........	1572.60
	3540	708.2	3.99315E-001	4.57448E-008	0.00000E+000	3.99977E-001	-4.92825E-004	7	...........	1572.60
	3555	711.2	3.99315E-001	4.45309E-008	0.00000E+000	3.99977E-001	-5.30758E-004	7	...........	1572.60
	3570	714.2	3.99317E-001	4.42249E-008	0.00000E+000	3.99977E-001	-5.03913E-004	7	...........	1572.60
	3585	717.2	3.99287E-001	4.51795E-008	0.00000E+000	3.99977E-001	-4.77485E-004	7	...........	1572.60
	3600	720.2	3.99312E-001	4.50113E-008	0.00000E+000	3.99977E-001	-4.77485E-004	7	...........	1572.60
	3615	723.2	3.99308E-001	1.82882E-007	0.00000E+000	3.99977E-001	-4.84904E-004	7	...........	1572.60
	3630	726.2	3.99315E-001	1.78386E-007	0.00000E+000	3.99977E-001	-5.29174E-004	7	...........	1572.60
	3645	729.2	3.99324E-001	1.77990E-007	0.00000E+000	3.99977E-001	-5.25089E-004	7	...........	1572.60
	3660	732.2	3.99303E-001	1.76610E-007	0.00000E+000	3.99977E-001	-5.27923E-004	7	...........	1572.60
	3675	735.2	3.99275E-001	1.77318E-007	0.00000E+000	3.99977E-001	-5.13167E-004	7	...........	1572.60
	3690	738.2	3.99273E-001	1.76068E-007	0.00000E+000	3.99977E-001	-5.51600E-004	7	...........	1572.60
	3705	741.2	3.99277E-001	1.73003E-007	0.00000E+000	3.99977E-001	-4.90407E-004	7	...........	1572.60
	3720	744.2	3.99269E-001	4.45990E-008	0.00000E+000	3.99977E-001	-5.01662E-004	7	...........	1572.60
	3735	747.2	3.99281E-001	4.07027E-008	0.00000E+000	3.99977E-001	-4.67564E-004	7	...........	1572.60
	3750	750.2	3.99287E-001	3.96013E-008	0.00000E+000	3.99977E-001	-4.92241E-004	7	...........	1572.60
	3765	753.2	3.99315E-001	3.83206E-008	0.00000E+000	3.99977E-001	-4.90073E-004	7	...........	1572.60
	3780	756.2	3.99290E-001	3.66909E-008	0.00000E+000	3.99977E-001	-5.01328E-004	7	...........	1572.60
	3795	759.2	3.99311E-001	3.97439E-008	0.00000E+000	3.99977E-001	-5.16585E-004	7	...........	1572.60
	3810	762.2	3.99280E-001	3.99497E-008	0.00000E+000	3.99977E-001	-5.21504E-004	7	...........	1572.60
	3825	765.2	3.99314E-001	1.75495E-007	0.00000E+000	3.99977E-001	-5.08331E-004	7	...........	1572.60
	3840	768.2	3.99285E-001	1.70982E-007	0.00000E+000	3.99977E-001	-5.18752E-004	7	...........	1572.60
	3855	771.2	3.99282E-001	1.69215E-007	0.00000E+000	3.99977E-001	-5.19836E-004	7	...........	1572.60
	3870	774.2	3.99318E-001	1.67870E-007	0.00000E+000	3.99977E-001	-5.18169E-004	7	...........	1572.60
	3885	777.2	3.99295E-001	1.68357E-007	0.00000E+000	3.99977E-001	-5.09248E-004	7	...........	1572.60
	3900	780.2	3.99308E-001	1.66980E-007	0.00000E+000	3.99977E-001	-5.03579E-004	7	...........	1572.60
	3915	783.2	3.99274E-001	4.76707E-008	0.00000E+000	3.99977E-001	-5.17168E-004	7	...........	1572.60
	3930	786.2	3.99323E-001	3.95471E-008	0.00000E+000	3.99977E-001	-5.16752E-004	7	...........	1572.60
	3945	789.2	3.99310E-001	3.66256E-008	0.00000E+000	3.99977E-001	-4.94492E-004	7	...........	1572.70
	3960	792.2	3.99300E-001	3.54498E-008	0.00000E+000	3.99977E-001	-5.04079E-004	7	...........	1572.60
	3975	795.2	3.99300E-001	3.40607E-008	0.00000E+000	3.99977E-001	-4.79235E-004	7	...........	1572.60
	3990	798.2	3.99251E-001	3.47372E-008	0.00000E+000	3.99977E-001	-5.03746E-004	7	...........	1572.60
	4005	801.2	3.99311E-001	3.31985E-008	0.00000E+000	3.99977E-001	-4.77485E-004	7	...........	1572.60
	4020	804.2	3.99297E-001	1.63288E-007	0.00000E+000	3.99977E-001	-4.99411E-004	7	...........	1572.60
	4035	807.2	3.99277E-001	1.63105E-007	0.00000E+000	3.99977E-001	-4.96910E-004	7	...........	1572.60
	4050	810.2	3.99284E-001	1.63110E-007	0.00000E+000	3.99977E-001	-4.95492E-004	7	...........	1572.70
	4065	813.2	3.99330E-001	1.61778E-007	0.00000E+000	3.99977E-001	-5.15168E-004	7	...........	1572.60
	4080	816.2	3.99287E-001	1.61118E-007	0.00000E+000	3.99977E-001	-5.03496E-004	7	...........	1572.60
	4095	819.2	3.99308E-001	1.60084E-007	0.00000E+000	3.99977E-001	-5.21004E-004	7	...........	1572.60
	4110	822.2	3.99303E-001	1.58061E-007	0.00000E+000	3.99977E-001	-4.96743E-004	7	...........	1572.70
	4125	825.2	3.99283E-001	3.58726E-008	0.00000E+000	3.99977E-001	-5.11499E-004	7	...........	1572.70
	4140	828.2	3.99280E-001	3.39765E-008	0.00000E+000	3.99977E-001	-4.86488E-004	7	...........	1572.60
	4155	831.2	3.99300E-001	3.27014E-008	0.00000E+000	3.99977E-001	-5.14000E-004	7	...........	1572.70
	4170	834.2	3.99299E-001	3.13804E-008	0.00000E+000	3.99977E-001	-5.15751E-004	7	...........	1572.60
	4185	837.2	3.99294E-001	3.14200E-008	0.00000E+000	3.99977E-001	-5.08165E-004	7	...........	1572.60
	4200	840.2	5.99234E-001	2.45625E-006	0.00000E+000	5.99991E-001	-4.93575E-004	7	...........	1572.70
	4215	843.2	5.99226E-001	8.85964E-007	0.00000E+000	5.99991E-001	-4.99744E-004	7	...........	1572.70
	4230	846.2	5.99211E-001	7.09926E-007	0.00000E+000	5.99991E-001	-4.96243E-004	7	...........	1572.70
	4245	849.2	5.99249E-001	6.31863E-007	0.00000E+000	5.99991E-001	-4.85988E-004	7	...........	1572.60
	4260	852.2	5.99218E-001	5.78842E-007	0.00000E+000	5.99991E-001	-4.92408E-004	7	...........	1572.60
	4275	855.2	5.99235E-001	5.47179E-007	0.00000E+000	5.99991E-001	-5.19169E-004	7	...........	1572.70
	4290	858.2	5.99238E-001	5.26160E-007	0.00000E+000	5.99991E-001	-5.03246E-004	7	...........	1572.60
	4305	861.2	5.99249E-001	5.12920E-007	0.00000E+000	5.99991E-001	-4.98827E-004	7	...........	1572.60
	4320	864.2	5.99222E-001	2.60268E-007	0.00000E+000	5.99991E-001	-5.07748E-004	7	...........	1572.60
	4335	867.2	5.99245E-001	2.40332E-007	0.00000E+000	5.99991E-001	-5.14000E-004	7	...........	1572.60
	4350	870.2	5.99217E-001	2.26112E-007	0.00000E+000	5.99991E-001	-4.98911E-004	7	...........	1572.60
	4365	873.2	5.99204E-001	2.18225E-007	0.00000E+000	5.99991E-001	-5.06831E-004	7	...........	1572.60
	4380	876.2	5.99249E-001	2.14703E-007	0.00000E+000	5.99991E-001	-4.96159E-004	7	...........	1572.60
	4395	879.2	5.99240E-001	2.06324E-007	0.00000E+000	5.99991E-001	-5.07498E-004	7	...........	1572.60
	4410	882.2	5.99233E-001	1.98741E-007	0.00000E+000	5.99991E-001	-5.05663E-004	7	...........	1572.60
	4425	885.2	5.99233E-001	4.43283E-007	0.00000E+000	5.99991E-001	-4.93658E-004	7	...........	1572.60
	4440	888.2	5.99212E-001	4.33819E-007	0.00000E+000	5.99991E-001	-5.00578E-004	7	...........	1572.60
	4455	891.2	5.99215E-001	4.24060E-007	0.00000E+000	5.99991E-001	-4.97326E-004	7	...........	1572.60
	4470	894.2	5.99217E-001	4.14528E-007	0.00000E+000	5.99991E-001	-5.13917E-004	7	...........	1572.60
	4485	897.2	5.99260E-001	4.14460E-007	0.00000E+000	5.99991E-001	-5.10832E-004	7	...........	1572.60
	4500	900.2	5.99272E-001	3.99279E-007	0.00000E+000	5.99991E-001	-4.84488E-004	7	...........	1572.60
	4515	903.2	5.99253E-001	1.85676E-007	0.00000E+000	5.99991E-001	-5.49099E-004	7	...........	1572.60
	4530	906.2	5.99240E-001	1.63998E-007	0.00000E+000	5.99991E-001	-5.23588E-004	7	...........	1572.60
	4545	909.2	5.99266E-001	1.56637E-007	0.00000E+000	5.99991E-001	-5.00244E-004	7	...........	1572.60
	4560	912.2	5.99210E-001	1.50930E-007	0.00000E+000	5.99991E-001	-4.94242E-004	7	...........	1572.60
	4575	915.2	5.99253E-001	1.45600E-007	0.00000E+000	5.99991E-001	-5.21837E-004	7	...........	1572.70
	4590	918.2	5.99216E-001	1.44290E-007	0.00000E+000	5.99991E-001	-5.45681E-004	7	...........	1572.60
	4605	921.2	5.99242E-001	1.40677E-007	0.00000E+000	5.99991E-001	-5.02162E-004	7	...........	1572.60
	4620	924.2	5.99214E-001	3.75374E-007	0.00000E+000	5.99991E-001	-5.02079E-004	7	...........	1572.70
	4635	927.2	5.99202E-001	3.73612E-007	0.00000E+000	5.99991E-001	-5.25589E-004	7	...........	1572.60
	4650	930.2	5.99212E-001	3.70380E-007	0.00000E+000	5.99991E-001	-5.01828E-004	7	...........	1572.60
	4665	933.2	5.99228E-001	3.69002E-007	0.00000E+000	5.99991E-001	-5.17752E-004	7	...........	1572.60
	4680	936.2	5.99254E-001	3.63336E-007	0.00000E+000	5.99991E-001	-4.99161E-004	7	...........	1572.60
	4695	939.2	5.99205E-001	3.56979E-007	0.00000E+000	5.99991E-001	-4.97577E-004	7	...........	1572.60
	4710	942.2	5.99219E-001	3.51928E-007	0.00000E+000	5.99991E-001	-5.13667E-004	7	...........	1572.60
	4725	945.2	5.99247E-001	1.30918E-007	0.00000E+000	5.99991E-001	-5.21754E-004	7	...........	1572.70
	4740	948.2	5.99249E-001	1.23211E-007	0.00000E+000	5.99991E-001	-4.83237E-004	7	...........	1572.60
	4755	951.2	5.99236E-001	1.20243E-007	0.00000E+000	5.99991E-001	-5.06664E-004	7	...........	1572.60
	4770	954.2	5.99221E-001	1.16514E-007	0.00000E+000	5.99991E-001	-4.97743E-004	7	...........	1572.60
	4785	957.2	5.99239E-001	1.14810E-007	0.00000E+000	5.99991E-001	-4.96743E-004	7	...........	1572.60
	4800	960.2	5.99224E-001	1.12785E-007	0.00000E+000	5.99991E-001	-5.01078E-004	7	...........	1572.60
	4815	963.2	5.99232E-001	3.36720E-007	0.00000E+000	5.99991E-001	-5.02829E-004	7	...........	1572.60
	4830	966.2	5.99258E-001	3.35540E-007	0.00000E+000	5.99991E-001	-4.94325E-004	7	...........	1572.60
	4845	969.2	5.99197E-001	3.36524E-007	0.00000E+000	5.99991E-001	-5.10666E-004	7	...........	1572.60
	4860	972.2	5.99247E-001	3.31940E-007	0.00000E+000	5.99991E-001	-5.03079E-004	7	...........	1572.70
	4875	975.2	5.99232E-001	3.30082E-007	0.00000E+000	5.99991E-001	-5.48932E-004	7	...........	1572.60
	4890	978.2	5.99230E-001	3.27686E-007	0.00000E+000	5.99991E-001	-5.08581E-004	7	...........	1572.70
	4905	981.2	5.99172E-001	3.24638E-007	0.00000E+000	5.99991E-001	-4.91157E-004	7	...........	1572.60
	4920	984.2	5.99233E-001	1.20133E-007	0.00000E+000	5.99991E-001	-5.01412E-004	7	...........	1572.60
	4935	987.2	5.99232E-001	1.08188E-007	0.00000E+000	5.99991E-001	-4.92574E-004	7	...........	1572.60
	4950	990.2	5.99229E-001	1.05470E-007	0.00000E+000	5.99991E-001	-5.16668E-004	7	...........	1572.70
	4965	993.2	5.99205E-001	1.02756E-007	0.00000E+000	5.99991E-001	-5.00328E-004	7	...........	1572.60
	4980	996.2	5.99228E-001	9.91421E-008	0.00000E+000	5.99991E-001	-5.41179E-004	7	...........	1572.60
	4995	999.2	5.99246E-001	9.68651E-008	0.00000E+000	5.99991E-001	-5.11416E-004	7	...........	1572.60
	5010	1002.2	5.99191E-001	9.53215E-008	0.00000E+000	5.99991E-001	-5.25422E-004	7	...........	1572.60
	5025	1005.2	5.99233E-001	3.17755E-007	0.00000E+000	5.99991E-001	-5.24172E-004	7	...........	1572.60
	5040	1008.2	5.99244E-001	3.14884E-007	0.00000E+000	5.99991E-001	-5.36093E-004	7	...........	1572.70
	5055	1011.2	5.99241E-001	3.11540E-007	0.00000E+000	5.99991E-001	-4.87656E-004	7	...........	1572.70
	5070	1014.2	5.99230E-001	3.08900E-007	0.00000E+000	5.99991E-001	-4.91657E-004	7	...........	1572.60
	5085	1017.2	5.99238E-001	3.06346E-007	0.00000E+000	5.99991E-001	-5.02412E-004	7	...........	1572.60
	5100	1020.2	5.99215E-001	3.04850E-007	0.00000E+000	5.99991E-001	-5.17335E-004	7	...........	1572.60
	5115	1023.2	5.99205E-001	1.21764E-007	0.00000E+000	5.99991E-001	-5.13167E-004	7	...........	1572.60
	5130	1026.2	5.99200E-001	9.89279E-008	0.00000E+000	5.99991E-001	-4.83571E-004	7	...........	1572.60
	5145	1029.2	5.99228E-001	9.40575E-008	0.00000E+000	5.99991E-001	-4.96326E-004	7	...........	1572.60
	5160	1032.2	5.99230E-001	9.14968E-008	0.00000E+000	5.99991E-001	-5.09415E-004	7	...........	1572.60
	5175	1035.2	5.99244E-001	9.16074E-008	0.00000E+000	5.99991E-001	-5.19336E-004	7	...........	1572.60
	5190	1038.2	5.99243E-001	8.83743E-008	0.00000E+000	5.99991E-001	-5.08665E-004	7	...........	1572.60
	5205	1041.2	5.99196E-001	8.66341E-008	0.00000E+000	5.99991E-001	-5.30924E-004	7	...........	1572.60
	5220	1044.2	5.99253E-001	3.03464E-007	0.00000E+000	5.99991E-001	-4.95326E-004	7	...........	1572.60
	5235	1047.2	5.99241E-001	3.00834E-007	0.00000E+000	5.99991E-001	-5.02662E-004	7	...........	1572.60
	5250	1050.2	5.99266E-001	2.99791E-007	0.00000E+000	5.99991E-001	-5.09665E-004	7	...........	1572.60
	5265	1053.2	5.99230E-001	2.99662E-007	0.00000E+000	5.99991E-001	-5.12083E-004	7	...........	1572.60
	5280	1056.2	5.99174E-001	2.93863E-007	0.00000E+000	5.99991E-001	-4.94409E-004	7	...........	1572.60
	5295	1059.2	5.99242E-001	2.92695E-007	0.00000E+000	5.99991E-001	-4.88656E-004	7	...........	1572.60
	5310	1062.2	5.99234E-001	2.90993E-007	0.00000E+000	5.99991E-001	-4.92074E-004	7	...........	1572.70
	5325	1065.2	5.99230E-001	9.40603E-008	0.00000E+000	5.99991E-001	-4.90490E-004	7	...........	1572.70
	5340	1068.2	5.99252E-001	8.79745E-008	0.00000E+000	5.99991E-001	-5.33342E-004	7	...........	1572.60
	5355	1071.2	5.99227E-001	8.36221E-008	0.00000E+000	5.99991E-001	-5.03079E-004	7	...........	1572.60
	5370	1074.2	5.99221E-001	8.30666E-008	0.00000E+000	5.99991E-001	-5.06414E-004	7	...........	1572.70
	5385	1077.2	5.99245E-001	8.10725E-008	0.00000E+000	5.99991E-001	-5.02162E-004	7	...........	1572.70
	5400	1080.2	5.99243E-001	8.02653E-008	0.00000E+000	5.99991E-001	-5.00244E-004	7	...........	1572.70
	5415	1083.2	5.99240E-001	7.82525E-008	0.00000E+000	5.99991E-001	-4.93241E-004	7	...........	1572.70
	5430	1086.2	5.99217E-001	2.89373E-007	0.00000E+000	5.99991E-001	-5.05997E-004	7	...........	1572.60
	5445	1089.2	5.99242E-001	2.85762E-007	0.00000E+000	5.99991E-001	-4.96660E-004	7	...........	1572.60
	5460	1092.2	5.99236E-001	2.85088E-007	0.00000E+000	5.99991E-001	-4.93575E-004	7	...........	1572.60
	5475	1095.2	5.99231E-001	2.82981E-007	0.00000E+000	5.99991E-001	-4.96493E-004	7	...........	1572.70
	5490	1098.2	5.99250E-001	2.83604E-007	0.00000E+000	5.99991E-001	-4.64479E-004	7	...........	1572.60
	5505	1101.2	5.99250E-001	2.81939E-007	0.00000E+000	5.99991E-001	-5.03162E-004	7	...........	1572.60
	5520	1104.2	5.99209E-001	9.39630E-008	0.00000E+000	5.99991E-001	-5.01662E-004	7	...........	1572.70
	5535	1107.2	5.99218E-001	8.35345E-008	0.00000E+000	5.99991E-001	-5.24672E-004	7	...........	1572.60
	5550	1110.2	5.99219E-001	7.96834E-008	0.00000E+000	5.99991E-001	-4.83404E-004	7	...........	1572.60
	5565	1113.2	5.99227E-001	7.75308E-008	0.00000E+000	5.99991E-001	-5.03746E-004	7	...........	1572.60
	5580	1116.2	5.99237E-001	7.62758E-008	0.00000E+000	5.99991E-001	-5.08998E-004	7	...........	1572.60
	5595	1119.2	5.99245E-001	7.46767E-008	0.00000E+000	5.99991E-001	-4.93325E-004	7	...........	1572.60
	5610	1122.2	7.99216E-001	9.76023E-007	0.00000E+000	8.00004E-001	-5.09415E-004	7	...........	1572.60
	5625	1125.2	7.99221E-001	1.12880E-006	0.00000E+000	8.00004E-001	-4.93075E-004	7	...........	1572.60
	5640	1128.2	7.99197E-001	1.02076E-006	0.00000E+000	8.00004E-001	-5.15251E-004	7	...........	1572.70
	5655	1131.2	7.99201E-001	9.59414E-007	0.00000E+000	8.00004E-001	-4.85905E-004	7	...........	1572.70
	5670	1134.2	7.99143E-001	9.17516E-007	0.00000E+000	8.00004E-001	-5.28257E-004	7	...........	1572.60
	5685	1137.2	7.99189E-001	8.80945E-007	0.00000E+000	8.00004E-001	-4.84571E-004	7	...........	1572.70
	5700	1140.2	7.99195E-001	8.46956E-007	0.00000E+000	8.00004E-001	-5.28507E-004	7	...........	1572.60
	5715	1143.2	7.99185E-001	8.24331E-007	0.00000E+000	8.00004E-001	-4.93408E-004	7	...........	1572.60
	5730	1146.2	7.99185E-001	4.47916E-007	0.00000E+000	8.00004E-001	-5.09082E-004	7	...........	1572.60
	5745	1149.2	7.99219E-001	4.22725E-007	0.00000E+000	8.00004E-001	-5.09582E-004	7	...........	1572.60
	5760	1152.2	7.99199E-001	4.05489E-007	0.00000E+000	8.00004E-001	-5.03412E-004	7	...........	1572.60
	5775	1155.2	7.99232E-001	3.89580E-007	0.00000E+000	8.00004E-001	-5.05330E-004	7	...........	1572.60
	5790	1158.2	7.99191E-001	3.79100E-007	0.00000E+000	8.00004E-001	-4.86822E-004	7	...........	1572.70
	5805	1161.2	7.99220E-001	3.74262E-007	0.00000E+000	8.00004E-001	-4.96076E-004	7	...........	1572.60
	5820	1164.2	7.99170E-001	7.28854E-007	0.00000E+000	8.00004E-001	-4.97910E-004	7	...........	1572.60
	5835	1167.2	7.99213E-001	7.15460E-007	0.00000E+000	8.00004E-001	-5.02245E-004	7	...........	1572.60
	5850	1170.2	7.99213E-001	7.04105E-007	0.00000E+000	8.00004E-001	-5.12000E-004	7	...........	1572.60
	5865	1173.2	7.99196E-001	6.97874E-007	0.00000E+000	8.00004E-001	-5.04246E-004	7	...........	1572.70
	5880	1176.2	7.99204E-001	6.90594E-007	0.00000E+000	8.00004E-001	-4.98827E-004	7	...........	1572.60
	5895	1179.2	7.99201E-001	6.86066E-007	0.00000E+000	8.00004E-001	-4.95075E-004	7	...........	1572.60
	5910	1182.2	7.99205E-001	6.71277E-007	0.00000E+000	8.00004E-001	-4.95742E-004	7	...........	1572.60
	5925	1185.2	7.99215E-001	3.31871E-007	0.00000E+000	8.00004E-001	-5.17419E-004	7	...........	1572.60
	5940	1188.2	7.99203E-001	3.15386E-007	0.00000E+000	8.00004E-001	-5.01161E-004	7	...........	1572.70
	5955	1191.2	7.99222E-001	3.06467E-007	0.00000E+000	8.00004E-001	-5.09165E-004	7	...........	1572.70
	5970	1194.2	7.99211E-001	2.97967E-007	0.00000E+000	8.00004E-001	-5.00411E-004	7	...........	1572.60
	5985	1197.2	7.99224E-001	2.91550E-007	0.00000E+000	8.00004E-001	-4.96826E-004	7	...........	1572.60
	6000	1200.2	7.99200E-001	2.85914E-007	0.00000E+000	8.00004E-001	-5.13917E-004	7	...........	1572.60
	6015	1203.2	7.99211E-001	2.79644E-007	0.00000E+000	8.00004E-001	-5.32008E-004	7	...........	1572.60
	6030	1206.2	7.99188E-001	6.44513E-007	0.00000E+000	8.00004E-001	-4.96493E-004	7	...........	1572.60
	6045	1209.2	7.99203E-001	6.37130E-007	0.00000E+000	8.00004E-001	-5.20253E-004	7	...........	1572.60
	6060	1212.2	7.99203E-001	6.31434E-007	0.00000E+000	8.00004E-001	-4.99244E-004	7	...........	1572.60
	6075	1215.2	7.99187E-001	6.29738E-007	0.00000E+000	8.00004E-001	-5.19586E-004	7	...........	1572.60
	6090	1218.2	7.99225E-001	6.23062E-007	0.00000E+000	8.00004E-001	-5.14834E-004	7	...........	1572.60
	6105	1221.2	7.99215E-001	6.19125E-007	0.00000E+000	8.00004E-001	-5.11666E-004	7	...........	1572.70
	6120	1224.2	7.99189E-001	3.02449E-007	0.00000E+000	8.00004E-001	-5.05413E-004	7	...........	1572.60
	6135	1227.2	7.99224E-001	2.80717E-007	0.00000E+000	8.00004E-001	-5.21587E-004	7	...........	1572.60
	6150	1230.2	7.99201E-001	2.70591E-007	0.00000E+000	8.00004E-001	-4.72816E-004	7	...........	1572.60
	6165	1233.2	7.99223E-001	2.65184E-007	0.00000E+000	8.00004E-001	-4.82153E-004	7	...........	1572.60
	6180	1236.2	7.99200E-001	2.59377E-007	0.00000E+000	8.00004E-001	-5.02079E-004	7	...........	1572.60
	6195	1239.2	7.99224E-001	2.53310E-007	0.00000E+000	8.00004E-001	-4.89823E-004	7	...........	1572.60
	6210	1242.2	7.99221E-001	2.48937E-007	0.00000E+000	8.00004E-001	-4.89656E-004	7	...........	1572.70
	6225	1245.2	7.99207E-001	6.02615E-007	0.00000E+000	8.00004E-001	-5.10332E-004	7	...........	1572.60
	6240	1248.2	7.99199E-001	5.95893E-007	0.00000E+000	8.00004E-001	-5.33175E-004	7	...........	1572.60
	6255	1251.2	7.99210E-001	5.90133E-007	0.00000E+000	8.00004E-001	-4.86655E-004	7	...........	1572.60
	6270	1254.2	7.99211E-001	5.94553E-007	0.00000E+000	8.00004E-001	-5.13417E-004	7	...........	1572.70
	6285	1257.2	7.99193E-001	5.78099E-007	0.00000E+000	8.00004E-001	-5.08165E-004	7	...........	1572.60
	6300	1260.2	7.99184E-001	5.75583E-007	0.00000E+000	8.00004E-001	-5.22588E-004	7	...........	1572.60
	6315	1263.2	7.99190E-001	5.74538E-007	0.00000E+000	8.00004E-001	-5.21254E-004	7	...........	1572.70
	6330	1266.2	7.99200E-001	2.49734E-007	0.00000E+000	8.00004E-001	-4.90407E-004	7	...........	1572.60
	6345	1269.2	7.99188E-001	2.40564E-007	0.00000E+000	8.00004E-001	-5.00161E-004	7	...........	1572.60
	6360	1272.2	7.99121E-001	2.36605E-007	0.00000E+000	8.00004E-001	-5.10082E-004	7	...........	1572.60
	6375	1275.2	7.99190E-001	2.31424E-007	0.00000E+000	8.00004E-001	-5.25339E-004	7	...........	1572.60
	6390	1278.2	7.99208E-001	2.27926E-007	0.00000E+000	8.00004E-001	-4.86572E-004	7	...........	1572.60
	6405	1281.2	7.99205E-001	2.24689E-007	0.00000E+000	8.00004E-001	-4.97577E-004	7	...........	1572.60
	6420	1284.2	7.99197E-001	5.66442E-007	0.00000E+000	8.00004E-001	-4.85238E-004	7	...........	1572.70
	6435	1287.2	7.99187E-001	5.62666E-007	0.00000E+000	8.00004E-001	-5.04830E-004	7	...........	1572.70
	6450	1290.2	7.99204E-001	5.60057E-007	0.00000E+000	8.00004E-001	-5.19253E-004	7	...........	1572.60
	6465	1293.2	7.99191E-001	5.60522E-007	0.00000E+000	8.00004E-001	-4.88573E-004	7	...........	1572.60
	6480	1296.2	7.99188E-001	5.61877E-007	0.00000E+000	8.00004E-001	-5.20753E-004	7	...........	1572.60
	6495	1299.2	7.99207E-001	5.57193E-007	0.00000E+000	8.00004E-001	-5.07081E-004	7	...........	1572.70
	6510	1302.2	7.99211E-001	5.54304E-007	0.00000E+000	8.00004E-001	-5.00411E-004	7	...........	1572.60
	6525	1305.2	7.99193E-001	2.46985E-007	0.00000E+000	8.00004E-001	-4.91324E-004	7	...........	1572.70
	6540	1308.2	7.99206E-001	2.31832E-007	0.00000E+000	8.00004E-001	-5.09999E-004	7	...........	1572.70
	6555	1311.2	7.99227E-001	2.24320E-007	0.00000E+000	8.00004E-001	-5.11416E-004	7	...........	1572.60
	6570	1314.2	7.99172E-001	2.21409E-007	0.00000E+000	8.00004E-001	-5.05163E-004	7	...........	1572.60
	6585	1317.2	7.99187E-001	2.18959E-007	0.00000E+000	8.00004E-001	-5.17335E-004	7	...........	1572.70
	6600	1320.2	7.99167E-001	2.18356E-007	0.00000E+000	8.00004E-001	-5.07748E-004	7	...........	1572.70
	6615	1323.2	7.99188E-001	2.07559E-007	0.00000E+000	8.00004E-001	-5.26923E-004	7	...........	1572.60
	6630	1326.2	7.99187E-001	5.47052E-007	0.00000E+000	8.00004E-001	-4.92825E-004	7	...........	1572.70
	6645	1329.2	7.99202E-001	5.41647E-007	0.00000E+000	8.00004E-001	-5.23254E-004	7	...........	1572.70
	6660	1332.2	7.99121E-001	5.39401E-007	0.00000E+000	8.00004E-001	-5.05330E-004	7	...........	1572.70
	6675	1335.2	7.99214E-001	5.36854E-007	0.00000E+000	8.00004E-001	-5.07748E-004	7	...........	1572.60
	6690	1338.2	7.99198E-001	5.34604E-007	0.00000E+000	8.00004E-001	-5.20420E-004	7	...........	1572.70
	6705	1341.2	7.99174E-001	5.34606E-007	0.00000E+000	8.00004E-001	-4.87072E-004	7	...........	1572.70
	6720	1344.2	7.99183E-001	2.49534E-007	0.00000E+000	8.00004E-001	-5.23004E-004	7	...........	1572.60
	6735	1347.2	7.99193E-001	2.25553E-007	0.00000E+000	8.00004E-001	-4.80236E-004	7	...........	1572.70
	6750	1350.2	7.99208E-001	2.13561E-007	0.00000E+000	8.00004E-001	-5.20670E-004	7	...........	1572.70
	6765	1353.2	7.99192E-001	2.09119E-007	0.00000E+000	8.00004E-001	-5.17335E-004	7	...........	1572.60
	6780	1356.2	7.99204E-001	2.05831E-007	0.00000E+000	8.00004E-001	-4.78568E-004	7	...........	1572.60
	6795	1359.2	7.99187E-001	2.03607E-007	0.00000E+000	8.00004E-001	-5.01912E-004	7	...........	1572.60
	6810	1362.2	7.99223E-001	2.01010E-007	0.00000E+000	8.00004E-001	-5.07831E-004	7	...........	1572.60
	6825	1365.2	7.99180E-001	5.30498E-007	0.00000E+000	8.00004E-001	-4.81403E-004	7	...........	1572.60
	6840	1368.2	7.99188E-001	5.19698E-007	0.00000E+000	8.00004E-001	-5.07081E-004	7	...........	1572.60
	6855	1371.2	7.99222E-001	5.19249E-007	0.00000E+000	8.00004E-001	-5.06330E-004	7	...........	1572.70
	6870	1374.2	7.99203E-001	5.18607E-007	0.00000E+000	8.00004E-001	-5.23004E-004	7	...........	1572.60
	6885	1377.2	7.99220E-001	5.15903E-007	0.00000E+000	8.00004E-001	-5.12416E-004	7	...........	1572.60
	6900	1380.2	7.99215E-001	5.16043E-007	0.00000E+000	8.00004E-001	-5.20920E-004	7	...........	1572.70
	6915	1383.2	7.99222E-001	5.13235E-007	0.00000E+000	8.00004E-001	-5.00828E-004	7	...........	1572.70
	6930	1386.2	7.99204E-001	2.11997E-007	0.00000E+000	8.00004E-001	-5.09582E-004	7	...........	1572.70
	6945	1389.2	7.99173E-001	2.04840E-007	0.00000E+000	8.00004E-001	-4.90073E-004	7	...........	1572.70
	6960	1392.2	7.99208E-001	2.00821E-007	0.00000E+000	8.00004E-001	-5.13667E-004	7	...........	1572.70
	6975	1395.2	7.99183E-001	1.98049E-007	0.00000E+000	8.00004E-001	-5.14501E-004	7	...........	1572.70
	6990	1398.2	7.99193E-001	1.96381E-007	0.00000E+000	8.00004E-001	-5.13417E-004	7	...........	1572.60
	7005	1401.2	9.99177E-001	1.87523E-006	0.00000E+000	1.00002E+000	-5.04913E-004	7	...........	1572.70
	7020	1404.2	9.99186E-001	1.89564E-006	0.00000E+000	1.00002E+000	-5.09082E-004	7	...........	1572.70
	7035	1407.2	9.99173E-001	1.69473E-006	0.00000E+000	1.00002E+000	-5.20503E-004	7	...........	1572.70
	7050	1410.2	9.99184E-001	1.60109E-006	0.00000E+000	1.00002E+000	-5.01161E-004	7	...........	1572.60
	7065	1413.2	9.99119E-001	1.53225E-006	0.00000E+000	1.00002E+000	-5.03329E-004	7	...........	1572.60
	7080	1416.2	9.99166E-001	1.48486E-006	0.00000E+000	1.00002E+000	-5.16251E-004	7	...........	1572.60
	7095	1419.2	9.99159E-001	1.41442E-006	0.00000E+000	1.00002E+000	-4.90657E-004	7	...........	1572.60
	7110	1422.2	9.99164E-001	1.39880E-006	0.00000E+000	1.00002E+000	-4.87989E-004	7	...........	1572.70
	7125	1425.2	9.99176E-001	8.55567E-007	0.00000E+000	1.00002E+000	-5.13417E-004	7	...........	1572.70
	7140	1428.2	9.99098E-001	8.05357E-007	0.00000E+000	1.00002E+000	-5.06831E-004	7	...........	1572.70
	7155	1431.2	9.99117E-001	7.84952E-007	0.00000E+000	1.00002E+000	-5.03913E-004	7	...........	1572.70
	7170	1434.2	9.99164E-001	7.60447E-007	0.00000E+000	1.00002E+000	-5.28257E-004	7	...........	1572.60
	7185	1437.2	9.99176E-001	7.41530E-007	0.00000E+000	1.00002E+000	-4.95159E-004	7	...........	1572.70
	7200	1440.2	9.99164E-001	7.25355E-007	0.00000E+000	1.00002E+000	-4.97660E-004	7	...........	1572.70
	7215	1443.2	9.99180E-001	7.13471E-007	0.00000E+000	1.00002E+000	-4.99828E-004	7	...........	1572.70
	7230	1446.2	9.99196E-001	1.26808E-006	0.00000E+000	1.00002E+000	-5.53184E-004	7	...........	1572.70
	7245	1449.2	9.99165E-001	1.25478E-006	0.00000E+000	1.00002E+000	-5.13667E-004	7	...........	1572.70
	7260	1452.2	9.99161E-001	1.24305E-006	0.00000E+000	1.00002E+000	-5.16835E-004	7	...........	1572.70
	7275	1455.2	9.99139E-001	1.23851E-006	0.00000E+000	1.00002E+000	-5.08248E-004	7	...........	1572.70
	7290	1458.2	9.99115E-001	1.22928E-006	0.00000E+000	1.00002E+000	-5.14584E-004	7	...........	1572.60
	7305	1461.2	9.99168E-001	1.22413E-006	0.00000E+000	1.00002E+000	-5.08915E-004	7	...........	1572.70
	7320	1464.2	9.99151E-001	1.15235E-006	0.00000E+000	1.00002E+000	-4.77234E-004	7	...........	1572.70
	7335	1467.2	9.99156E-001	6.77007E-007	0.00000E+000	1.00002E+000	-5.07164E-004	7	...........	1572.70
	7350	1470.2	9.99152E-001	6.58592E-007	0.00000E+000	1.00002E+000	-4.97993E-004	7	...........	1572.70
	7365	1473.2	9.99162E-001	6.41284E-007	0.00000E+000	1.00002E+000	-5.32592E-004	7	...........	1572.70
	7380	1476.2	9.99159E-001	6.29160E-007	0.00000E+000	1.00002E+000	-4.89073E-004	7	...........	1572.70
	7395	1479.2	9.99161E-001	6.19458E-007	0.00000E+000	1.00002E+000	-5.10916E-004	7	...........	1572.70
	7410	1482.2	9.99191E-001	6.08982E-007	0.00000E+000	1.00002E+000	-4.99077E-004	7	...........	1572.60
	7425	1485.2	9.99157E-001	5.95362E-007	0.00000E+000	1.00002E+000	-5.04246E-004	7	...........	1572.70
	7440	1488.2	9.99136E-001	5.90320E-007	0.00000E+000	1.00002E+000	-5.04997E-004	7	...........	1572.70
	7455	1491.2	9.99170E-001	5.83851E-007	0.00000E+000	1.00002E+000	-5.13584E-004	7	...........	1572.70
	7470	1494.2	9.99178E-001	5.73904E-007	0.00000E+000	1.00002E+000	-4.97660E-004	7	...........	1572.70
	7485	1497.2	9.99156E-001	5.66512E-007	0.00000E+000	1.00002E+000	-5.15001E-004	7	...........	1572.70
	7492	1498.6	9.99138E-001	5.63875E-007	0.00000E+000	1.00002E+000	-4.87739E-004	7	...........	1572.70