File: data/photocurrent/Photocurrent-MB.DTA
EXPLAIN
TAG	MULTI_STEP_CHRONOA
TITLE	LABEL	Chronoamperometry Scan	Test &Identifier
DATE	LABEL	5/8/2025	Date
TIME	LABEL	12:06:03	Time
PSTAT	PSTAT	IFC5000-19505	Potentiostat
NOTES	NOTES	1	&Notes...

AREA	QUANT	5.00000E-001	Sample &Area (cm^2)
ELECTRODETYPE	SELECTOR	0	Electrode Type
STRIPPING	TOGGLE	F	Used for Stripping
VSTEP0	POTEN	0.00000E+000	F	Step &1 (V)
TSTEP0	QUANT	2.80000E+002	Time &1 (s)
VSTEP1	POTEN	2.00000E-001	F	Step &2 (V)
TSTEP1	QUANT	2.80000E+002	Time &2 (s)
VSTEP2	POTEN	4.00000E-001	F	Step &3 (V)
TSTEP2	QUANT	2.80000E+002	Time &3 (s)
VSTEP3	POTEN	6.00000E-001	F	Step &4 (V)
TSTEP3	QUANT	2.80000E+002	Time &4 (s)
VSTEP4	POTEN	8.00000E-001	F	Step &5 (V)
TSTEP4	QUANT	2.80000E+002	Time &5 (s)
VSTEP5	POTEN	1.00000E+000	F	Step &6 (V)
TSTEP5	QUANT	2.80000E+002	Time &6 (s)
SAMPLETIME	QUANT	2.00000E-001	Sa&mple Period (s)
CONDIT	TWOPARAM	T	3.00000E+001	0.00000E+000	Conditionin&g	Time(s)	E(V)
DELAY	TWOPARAM	F	3.00000E+002	1.00000E-001	Init. De&lay	Time(s)	Stab.(mV/s)
EQDELAY	QUANT	0.00000E+000	Equil. &Time (s)
ILIMIT	QUANT	1.00000E+001	Limit &I (mA/cm^2)
IRANGE	QUANT	5.00000E+003	&Max Current (mA)
IRCOMP	SELECTOR	0	IRCom&p
PFCOR	QUANT	5.00000E+001	PF Corr. (ohm)
EOC	QUANT	0	Open Circuit (V)
PSTATMODEL	IQUANT	53	Pstat Model
PSTATSECTION	LABEL	IFC5000-19505	Pstat Section
PSTATSERIALNO	LABEL	19505	Pstat Serial Number
CTRLMODE	IQUANT	1	Control Mode
ELECTROMETER	IQUANT	0	RE=0 or CS=1
IESTAB	IQUANT	2	I/E Stability
CASPEED	IQUANT	4	Control Amp Speed
CONVENTION	IQUANT	1	Current Convention
ICHRANGE	IQUANT	2	Ich Range
ICHRANGEMODE	TOGGLE	F	Ich Auto Range
ICHOFFSETENABLE	TOGGLE	F	Ich Offset Enable
ICHOFFSET	QUANT	0	Ich Offset (V)
ICHFILTER	IQUANT	3	Ich Filter
VCHRANGE	IQUANT	2	Vch Range
VCHRANGEMODE	TOGGLE	F	Vch Auto Range
VCHOFFSETENABLE	TOGGLE	F	Vch Offset Enable
VCHOFFSET	QUANT	0	Vch Offset (V)
VCHFILTER	IQUANT	3	Vch Filter
IERANGELOWERLIMIT	IQUANT	7	I/E Range Lower Limit
IERANGEMODE	TOGGLE	T	I/E AutoRange
IERANGE	IQUANT	12	I/E Range
ACHSELECT	IQUANT	4	Ach Select
ACHRANGE	IQUANT	2	Ach Range
ACHOFFSETENABLE	TOGGLE	F	Ach Offset Enable
ACHOFFSET	QUANT	0	Ach Offset (V)
ACHFILTER	IQUANT	1	Ach Filter
SENSECABLEID	IQUANT	14	Sense Cable ID
PWRCABLEID	IQUANT	7	Power Cable ID
DCCALDATE	LABEL	8/4/2025	DC Calibration Date
ACCALDATE	LABEL	3/7/2024	AC Calibration Date
FRAMEWORKVERSION	LABEL	7.10.3	Framework Version
INSTRUMENTVERSION	LABEL	4.91	Instrument Version
COMMVERSION	LABEL	3.10	Communications Version
CPUPLDVERSION	LABEL	5.50	CPU PLD Version
CTRLPLDVERSION	LABEL	0.00	CTRL PLD Version
PSTATPLDVERSION	LABEL	0.00	PSTAT PLD Version
Curve	TABLE	8400
	Pt	T	Vf	Im	Vu	Sig	Ach	IERange	Over	Temp
	#	s	V vs. Ref.	A	V	V	V	#	bits	deg C
	0	0.2	-5.41964E-004	-7.87832E-004	0.00000E+000	0.00000E+000	-4.80402E-004	12	...........	1572.98
	17	3.6	-5.03535E-004	7.68320E-008	0.00000E+000	0.00000E+000	-4.62478E-004	7	...........	1572.51
	34	7	-5.34378E-004	6.38053E-008	0.00000E+000	0.00000E+000	-4.75650E-004	7	...........	1572.51
	51	10.4	-4.95532E-004	5.97546E-008	0.00000E+000	0.00000E+000	-4.84321E-004	7	...........	1572.51
	68	13.8	-5.42547E-004	5.56400E-008	0.00000E+000	0.00000E+000	-4.94242E-004	7	...........	1572.51
	85	17.2	-5.58302E-004	5.15622E-008	0.00000E+000	0.00000E+000	-4.84071E-004	7	...........	1572.51
	102	20.6	-5.24041E-004	5.14280E-008	0.00000E+000	0.00000E+000	-4.80986E-004	7	...........	1572.51
	119	24	-4.96116E-004	-2.79796E-008	0.00000E+000	0.00000E+000	-4.70732E-004	7	...........	1572.51
	136	27.4	-4.98533E-004	-2.74011E-008	0.00000E+000	0.00000E+000	-4.62478E-004	7	...........	1572.51
	153	30.8	-5.05702E-004	-2.62838E-008	0.00000E+000	0.00000E+000	-4.94742E-004	7	...........	1572.51
	170	34.2	-5.40213E-004	-2.59438E-008	0.00000E+000	0.00000E+000	-4.67647E-004	7	...........	1572.51
	187	37.6	-4.94282E-004	-2.41034E-008	0.00000E+000	0.00000E+000	-4.89406E-004	7	...........	1572.51
	204	41	-5.12788E-004	-2.23569E-008	0.00000E+000	0.00000E+000	-4.86989E-004	7	...........	1572.51
	221	44.4	-5.17956E-004	6.03484E-008	0.00000E+000	0.00000E+000	-4.61811E-004	7	...........	1572.51
	238	47.8	-5.28376E-004	5.88709E-008	0.00000E+000	0.00000E+000	-4.74066E-004	7	...........	1572.51
	255	51.2	-5.24708E-004	5.73983E-008	0.00000E+000	0.00000E+000	-4.72232E-004	7	...........	1572.51
	272	54.6	-5.08286E-004	5.64952E-008	0.00000E+000	0.00000E+000	-4.93241E-004	7	...........	1572.51
	289	58	-5.13538E-004	5.67371E-008	0.00000E+000	0.00000E+000	-4.63062E-004	7	...........	1572.51
	306	61.4	-5.21291E-004	5.66794E-008	0.00000E+000	0.00000E+000	-4.77485E-004	7	...........	1572.51
	323	64.8	-4.91281E-004	-1.23039E-008	0.00000E+000	0.00000E+000	-4.97910E-004	7	...........	1572.51
	340	68.2	-5.25792E-004	-1.42263E-008	0.00000E+000	0.00000E+000	-4.97827E-004	7	...........	1572.51
	357	71.6	-4.91281E-004	-1.28079E-008	0.00000E+000	0.00000E+000	-4.71482E-004	7	...........	1572.51
	374	75	-5.25042E-004	-1.19173E-008	0.00000E+000	0.00000E+000	-4.91074E-004	7	...........	1572.51
	391	78.4	-5.02201E-004	-1.05699E-008	0.00000E+000	0.00000E+000	-4.70231E-004	7	...........	1572.51
	408	81.8	-5.03535E-004	6.21005E-008	0.00000E+000	0.00000E+000	-4.87656E-004	7	...........	1572.51
	425	85.2	-4.95115E-004	6.21464E-008	0.00000E+000	0.00000E+000	-4.83237E-004	7	...........	1572.51
	442	88.6	-4.77276E-004	6.25107E-008	0.00000E+000	0.00000E+000	-4.70481E-004	7	...........	1572.51
	459	92	-5.01618E-004	6.41481E-008	0.00000E+000	0.00000E+000	-4.76484E-004	7	...........	1572.51
	476	95.4	-4.86446E-004	6.96999E-008	0.00000E+000	0.00000E+000	-4.91574E-004	7	...........	1572.51
	493	98.8	-5.35962E-004	7.40294E-008	0.00000E+000	0.00000E+000	-4.98827E-004	7	...........	1572.51
	510	102.2	-4.94949E-004	-3.23746E-009	0.00000E+000	0.00000E+000	-4.65729E-004	7	...........	1572.51
	527	105.6	-5.60970E-004	-5.73350E-009	0.00000E+000	0.00000E+000	-4.78485E-004	7	...........	1572.51
	544	109	-5.14622E-004	-5.86908E-009	0.00000E+000	0.00000E+000	-5.02162E-004	7	...........	1572.51
	561	112.4	-4.97366E-004	-5.44149E-009	0.00000E+000	0.00000E+000	-4.66897E-004	7	...........	1572.51
	578	115.8	-5.08036E-004	-5.64799E-009	0.00000E+000	0.00000E+000	-4.88239E-004	7	...........	1572.51
	595	119.2	-5.07536E-004	-6.04221E-009	0.00000E+000	0.00000E+000	-4.76151E-004	7	...........	1572.51
	612	122.6	-5.18290E-004	6.05758E-008	0.00000E+000	0.00000E+000	-4.72316E-004	7	...........	1572.51
	629	126	-5.00367E-004	6.09005E-008	0.00000E+000	0.00000E+000	-4.87989E-004	7	...........	1572.51
	646	129.4	-4.89697E-004	6.05222E-008	0.00000E+000	0.00000E+000	-4.90323E-004	7	...........	1572.51
	663	132.8	-5.64471E-004	6.06300E-008	0.00000E+000	0.00000E+000	-4.83154E-004	7	...........	1572.51
	680	136.2	-5.07369E-004	6.04339E-008	0.00000E+000	0.00000E+000	-4.87822E-004	7	...........	1572.51
	697	139.6	-5.24792E-004	6.05862E-008	0.00000E+000	0.00000E+000	-4.89156E-004	7	...........	1572.51
	714	143	-5.55051E-004	1.19338E-010	0.00000E+000	0.00000E+000	-5.04663E-004	7	...........	1572.51
	731	146.4	-5.35128E-004	-1.92964E-009	0.00000E+000	0.00000E+000	-4.83404E-004	7	...........	1572.51
	748	149.8	-4.83695E-004	-2.09095E-009	0.00000E+000	0.00000E+000	-4.66897E-004	7	...........	1572.51
	765	153.2	-4.96699E-004	-3.07894E-009	0.00000E+000	0.00000E+000	-4.75400E-004	7	...........	1572.51
	782	156.6	-5.28960E-004	-1.81492E-009	0.00000E+000	0.00000E+000	-5.10582E-004	7	...........	1572.51
	799	160	-4.95949E-004	-2.22722E-009	0.00000E+000	0.00000E+000	-4.91324E-004	7	...........	1572.51
	816	163.4	-4.95115E-004	6.08532E-008	0.00000E+000	0.00000E+000	-4.84571E-004	7	...........	1572.51
	833	166.8	-4.98783E-004	5.99806E-008	0.00000E+000	0.00000E+000	-4.87155E-004	7	...........	1572.51
	850	170.2	-5.58552E-004	5.96761E-008	0.00000E+000	0.00000E+000	-5.12250E-004	7	...........	1572.51
	867	173.6	-4.94365E-004	6.10319E-008	0.00000E+000	0.00000E+000	-4.84321E-004	7	...........	1572.51
	884	177	-4.92698E-004	5.96663E-008	0.00000E+000	0.00000E+000	-4.50556E-004	7	...........	1572.51
	901	180.4	-5.32878E-004	6.03046E-008	0.00000E+000	0.00000E+000	-4.97493E-004	7	...........	1572.51
	918	183.8	-5.24625E-004	3.25156E-009	0.00000E+000	0.00000E+000	-4.77651E-004	7	...........	1572.51
	935	187.2	-5.35545E-004	1.58915E-009	0.00000E+000	0.00000E+000	-4.77485E-004	7	...........	1572.51
	952	190.6	-5.58136E-004	1.09412E-009	0.00000E+000	0.00000E+000	-4.70315E-004	7	...........	1572.51
	969	194	-4.95699E-004	1.25125E-009	0.00000E+000	0.00000E+000	-4.91657E-004	7	...........	1572.51
	986	197.4	-5.18956E-004	6.73473E-010	0.00000E+000	0.00000E+000	-4.67230E-004	7	...........	1572.51
	1003	200.8	-5.20374E-004	1.30131E-009	0.00000E+000	0.00000E+000	-4.94742E-004	7	...........	1572.51
	1020	204.2	-4.95282E-004	6.18099E-008	0.00000E+000	0.00000E+000	-4.77068E-004	7	...........	1572.51
	1037	207.6	-4.99200E-004	6.12092E-008	0.00000E+000	0.00000E+000	-4.70148E-004	7	...........	1572.51
	1054	211	-4.99033E-004	6.06397E-008	0.00000E+000	0.00000E+000	-4.70148E-004	7	...........	1572.51
	1071	214.4	-4.91781E-004	6.12335E-008	0.00000E+000	0.00000E+000	-4.55725E-004	7	...........	1572.51
	1088	217.8	-4.92281E-004	6.15638E-008	0.00000E+000	0.00000E+000	-4.88990E-004	7	...........	1572.51
	1105	221.2	-5.47549E-004	6.05354E-008	0.00000E+000	0.00000E+000	-4.90240E-004	7	...........	1572.51
	1122	224.6	-4.98033E-004	5.87762E-009	0.00000E+000	0.00000E+000	-4.55475E-004	7	...........	1572.51
	1139	228	-5.24458E-004	4.36818E-009	0.00000E+000	0.00000E+000	-4.78985E-004	7	...........	1572.51
	1156	231.4	-4.92448E-004	5.63845E-009	0.00000E+000	0.00000E+000	-4.75984E-004	7	...........	1572.51
	1173	234.8	-5.20624E-004	5.01270E-009	0.00000E+000	0.00000E+000	-4.79652E-004	7	...........	1572.51
	1190	238.2	-4.86446E-004	3.68194E-009	0.00000E+000	0.00000E+000	-4.98994E-004	7	...........	1572.51
	1207	241.6	-4.94782E-004	4.87920E-009	0.00000E+000	0.00000E+000	-4.65646E-004	7	...........	1572.51
	1224	245	-4.98200E-004	6.13830E-008	0.00000E+000	0.00000E+000	-5.06664E-004	7	...........	1572.51
	1241	248.4	-5.04535E-004	6.07225E-008	0.00000E+000	0.00000E+000	-4.88406E-004	7	...........	1572.51
	1258	251.8	-5.06119E-004	6.16903E-008	0.00000E+000	0.00000E+000	-4.70481E-004	7	...........	1572.51
	1275	255.2	-5.07870E-004	6.01565E-008	0.00000E+000	0.00000E+000	-4.63062E-004	7	...........	1572.51
	1292	258.6	-4.82111E-004	6.15074E-008	0.00000E+000	0.00000E+000	-4.95659E-004	7	...........	1572.51
	1309	262	-5.30210E-004	6.10006E-008	0.00000E+000	0.00000E+000	-4.93325E-004	7	...........	1572.51
	1326	265.4	-5.52300E-004	6.16686E-009	0.00000E+000	0.00000E+000	-4.67230E-004	7	...........	1572.51
	1343	268.8	-4.93198E-004	5.22476E-009	0.00000E+000	0.00000E+000	-4.80486E-004	7	...........	1572.51
	1360	272.2	-4.99700E-004	4.97237E-009	0.00000E+000	0.00000E+000	-4.86322E-004	7	...........	1572.51
	1377	275.6	-5.26792E-004	4.63794E-009	0.00000E+000	0.00000E+000	-4.83821E-004	7	...........	1572.51
	1394	279	-5.04368E-004	3.91138E-009	0.00000E+000	0.00000E+000	-4.83904E-004	7	...........	1572.51
	1411	282.4	1.99450E-001	6.83957E-007	0.00000E+000	2.00014E-001	-4.64979E-004	7	...........	1572.51
	1428	285.8	1.99444E-001	3.74477E-007	0.00000E+000	2.00014E-001	-5.02245E-004	7	...........	1572.51
	1445	289.2	1.99434E-001	2.97683E-007	0.00000E+000	2.00014E-001	-4.72732E-004	7	...........	1572.51
	1462	292.6	1.99434E-001	2.61222E-007	0.00000E+000	2.00014E-001	-4.70565E-004	7	...........	1572.51
	1479	296	1.99419E-001	2.37105E-007	0.00000E+000	2.00014E-001	-4.64145E-004	7	...........	1572.51
	1496	299.4	1.99438E-001	2.21836E-007	0.00000E+000	2.00014E-001	-5.05914E-004	7	...........	1572.51
	1513	302.8	1.99430E-001	9.88855E-008	0.00000E+000	2.00014E-001	-4.85738E-004	7	...........	1572.51
	1530	306.2	1.99445E-001	8.49550E-008	0.00000E+000	2.00014E-001	-4.91741E-004	7	...........	1572.51
	1547	309.6	1.99448E-001	7.81190E-008	0.00000E+000	2.00014E-001	-5.03579E-004	7	...........	1572.51
	1564	313	1.99411E-001	7.18990E-008	0.00000E+000	2.00014E-001	-5.15418E-004	7	...........	1572.51
	1581	316.4	1.99466E-001	6.75077E-008	0.00000E+000	2.00014E-001	-4.75150E-004	7	...........	1572.51
	1598	319.8	1.99438E-001	6.46139E-008	0.00000E+000	2.00014E-001	-4.61311E-004	7	...........	1572.51
	1615	323.2	1.99429E-001	1.85972E-007	0.00000E+000	2.00014E-001	-4.82153E-004	7	...........	1572.51
	1632	326.6	1.99436E-001	1.81227E-007	0.00000E+000	2.00014E-001	-4.84904E-004	7	...........	1572.51
	1649	330	1.99462E-001	1.76589E-007	0.00000E+000	2.00014E-001	-5.12333E-004	7	...........	1572.51
	1666	333.4	1.99447E-001	1.74313E-007	0.00000E+000	2.00014E-001	-4.69398E-004	7	...........	1572.51
	1683	336.8	1.99437E-001	1.73491E-007	0.00000E+000	2.00014E-001	-4.74400E-004	7	...........	1572.51
	1700	340.2	1.99428E-001	1.67952E-007	0.00000E+000	2.00014E-001	-4.85988E-004	7	...........	1572.51
	1717	343.6	1.99448E-001	5.78308E-008	0.00000E+000	2.00014E-001	-4.95576E-004	7	...........	1572.51
	1734	347	1.99434E-001	5.19571E-008	0.00000E+000	2.00014E-001	-4.67230E-004	7	...........	1572.51
	1751	350.4	1.99452E-001	4.95619E-008	0.00000E+000	2.00014E-001	-4.81820E-004	7	...........	1572.51
	1768	353.8	1.99408E-001	4.82249E-008	0.00000E+000	2.00014E-001	-4.94158E-004	7	...........	1572.51
	1785	357.2	1.99410E-001	4.78995E-008	0.00000E+000	2.00014E-001	-4.97160E-004	7	...........	1572.51
	1802	360.6	1.99461E-001	4.67968E-008	0.00000E+000	2.00014E-001	-4.58560E-004	7	...........	1572.51
	1819	364	1.99397E-001	1.61506E-007	0.00000E+000	2.00014E-001	-4.70148E-004	7	...........	1572.51
	1836	367.4	1.99405E-001	1.59580E-007	0.00000E+000	2.00014E-001	-4.68564E-004	7	...........	1572.51
	1853	370.8	1.99458E-001	1.57619E-007	0.00000E+000	2.00014E-001	-4.67897E-004	7	...........	1572.51
	1870	374.2	1.99446E-001	1.56901E-007	0.00000E+000	2.00014E-001	-4.87989E-004	7	...........	1572.51
	1887	377.6	1.99443E-001	1.55263E-007	0.00000E+000	2.00014E-001	-4.98577E-004	7	...........	1572.51
	1904	381	1.99447E-001	1.54672E-007	0.00000E+000	2.00014E-001	-4.92241E-004	7	...........	1572.51
	1921	384.4	1.99446E-001	4.82714E-008	0.00000E+000	2.00014E-001	-4.92908E-004	7	...........	1572.51
	1938	387.8	1.99456E-001	4.41485E-008	0.00000E+000	2.00014E-001	-5.10332E-004	7	...........	1572.51
	1955	391.2	1.99450E-001	4.30875E-008	0.00000E+000	2.00014E-001	-4.90740E-004	7	...........	1572.51
	1972	394.6	1.99429E-001	4.13493E-008	0.00000E+000	2.00014E-001	-4.84571E-004	7	...........	1572.51
	1989	398	1.99427E-001	4.03182E-008	0.00000E+000	2.00014E-001	-4.56976E-004	7	...........	1572.51
	2006	401.4	1.99449E-001	3.92766E-008	0.00000E+000	2.00014E-001	-4.67730E-004	7	...........	1572.51
	2023	404.8	1.99414E-001	1.49500E-007	0.00000E+000	2.00014E-001	-4.79902E-004	7	...........	1572.51
	2040	408.2	1.99457E-001	1.49133E-007	0.00000E+000	2.00014E-001	-4.76151E-004	7	...........	1572.51
	2057	411.6	1.99455E-001	1.48223E-007	0.00000E+000	2.00014E-001	-4.75150E-004	7	...........	1572.51
	2074	415	1.99440E-001	1.46506E-007	0.00000E+000	2.00014E-001	-4.79735E-004	7	...........	1572.51
	2091	418.4	1.99433E-001	1.45046E-007	0.00000E+000	2.00014E-001	-4.94659E-004	7	...........	1572.51
	2108	421.8	1.99440E-001	1.45388E-007	0.00000E+000	2.00014E-001	-4.89740E-004	7	...........	1572.51
	2125	425.2	1.99447E-001	4.26835E-008	0.00000E+000	2.00014E-001	-4.74650E-004	7	...........	1572.51
	2142	428.6	1.99437E-001	3.87976E-008	0.00000E+000	2.00014E-001	-4.76984E-004	7	...........	1572.51
	2159	432	1.99432E-001	3.72374E-008	0.00000E+000	2.00014E-001	-4.65479E-004	7	...........	1572.51
	2176	435.4	1.99458E-001	3.76984E-008	0.00000E+000	2.00014E-001	-4.81736E-004	7	...........	1572.51
	2193	438.8	1.99434E-001	3.61834E-008	0.00000E+000	2.00014E-001	-4.90073E-004	7	...........	1572.51
	2210	442.2	1.99460E-001	3.74814E-008	0.00000E+000	2.00014E-001	-5.09665E-004	7	...........	1572.51
	2227	445.6	1.99447E-001	1.42365E-007	0.00000E+000	2.00014E-001	-4.89740E-004	7	...........	1572.51
	2244	449	1.99444E-001	1.41240E-007	0.00000E+000	2.00014E-001	-4.92408E-004	7	...........	1572.51
	2261	452.4	1.99386E-001	1.41094E-007	0.00000E+000	2.00014E-001	-4.81403E-004	7	...........	1572.51
	2278	455.8	1.99416E-001	1.40711E-007	0.00000E+000	2.00014E-001	-4.77651E-004	7	...........	1572.51
	2295	459.2	1.99467E-001	1.39085E-007	0.00000E+000	2.00014E-001	-4.70982E-004	7	...........	1572.51
	2312	462.6	1.99386E-001	1.08975E-007	0.00000E+000	2.00014E-001	-4.78985E-004	7	...........	1572.51
	2329	466	1.99426E-001	3.95492E-008	0.00000E+000	2.00014E-001	-4.95492E-004	7	...........	1572.51
	2346	469.4	1.99433E-001	3.51961E-008	0.00000E+000	2.00014E-001	-4.69481E-004	7	...........	1572.51
	2363	472.8	1.99414E-001	3.64295E-008	0.00000E+000	2.00014E-001	-4.79319E-004	7	...........	1572.51
	2380	476.2	1.99456E-001	3.53942E-008	0.00000E+000	2.00014E-001	-4.89490E-004	7	...........	1572.51
	2397	479.6	1.99428E-001	3.38681E-008	0.00000E+000	2.00014E-001	-4.95826E-004	7	...........	1572.51
	2414	483	1.99452E-001	1.35362E-007	0.00000E+000	2.00014E-001	-4.85821E-004	7	...........	1572.51
	2431	486.4	1.99451E-001	1.36215E-007	0.00000E+000	2.00014E-001	-4.71148E-004	7	...........	1572.51
	2448	489.8	1.99455E-001	1.37305E-007	0.00000E+000	2.00014E-001	-4.77151E-004	7	...........	1572.51
	2465	493.2	1.99456E-001	1.35742E-007	0.00000E+000	2.00014E-001	-4.91491E-004	7	...........	1572.51
	2482	496.6	1.99415E-001	1.34573E-007	0.00000E+000	2.00014E-001	-4.60644E-004	7	...........	1572.51
	2499	500	1.99440E-001	1.34556E-007	0.00000E+000	2.00014E-001	-4.83571E-004	7	...........	1572.60
	2516	503.4	1.99397E-001	4.22830E-008	0.00000E+000	2.00014E-001	-4.90407E-004	7	...........	1572.51
	2533	506.8	1.99444E-001	3.62710E-008	0.00000E+000	2.00014E-001	-5.39928E-004	7	...........	1572.51
	2550	510.2	1.99450E-001	3.51370E-008	0.00000E+000	2.00014E-001	-5.09832E-004	7	...........	1572.51
	2567	513.6	1.99458E-001	3.34224E-008	0.00000E+000	2.00014E-001	-4.63895E-004	7	...........	1572.51
	2584	517	1.99436E-001	3.06775E-008	0.00000E+000	2.00014E-001	-4.79235E-004	7	...........	1572.51
	2601	520.4	1.99442E-001	3.11329E-008	0.00000E+000	2.00014E-001	-4.89990E-004	7	...........	1572.51
	2618	523.8	1.99449E-001	1.33070E-007	0.00000E+000	2.00014E-001	-4.65563E-004	7	...........	1572.51
	2635	527.2	1.99417E-001	1.31558E-007	0.00000E+000	2.00014E-001	-4.90490E-004	7	...........	1572.51
	2652	530.6	1.99439E-001	1.31256E-007	0.00000E+000	2.00014E-001	-5.00411E-004	7	...........	1572.51
	2669	534	1.99432E-001	1.31602E-007	0.00000E+000	2.00014E-001	-4.72899E-004	7	...........	1572.51
	2686	537.4	1.99446E-001	1.32113E-007	0.00000E+000	2.00014E-001	-4.85988E-004	7	...........	1572.51
	2703	540.8	1.99419E-001	1.31062E-007	0.00000E+000	2.00014E-001	-4.58226E-004	7	...........	1572.51
	2720	544.2	1.99408E-001	3.79125E-008	0.00000E+000	2.00014E-001	-4.81069E-004	7	...........	1572.51
	2737	547.6	1.99425E-001	3.38173E-008	0.00000E+000	2.00014E-001	-4.79819E-004	7	...........	1572.51
	2754	551	1.99448E-001	3.23545E-008	0.00000E+000	2.00014E-001	-5.03746E-004	7	...........	1572.51
	2771	554.4	1.99449E-001	3.39786E-008	0.00000E+000	2.00014E-001	-4.78985E-004	7	...........	1572.51
	2788	557.8	1.99445E-001	3.41302E-008	0.00000E+000	2.00014E-001	-4.78235E-004	7	...........	1572.51
	2805	561.2	3.99300E-001	1.25092E-006	0.00000E+000	3.99977E-001	-4.66480E-004	7	...........	1572.51
	2822	564.6	3.99317E-001	7.03818E-007	0.00000E+000	3.99977E-001	-4.94242E-004	7	...........	1572.51
	2839	568	3.99339E-001	5.53234E-007	0.00000E+000	3.99977E-001	-4.83237E-004	7	...........	1572.51
	2856	571.4	3.99325E-001	4.86292E-007	0.00000E+000	3.99977E-001	-4.96409E-004	7	...........	1572.51
	2873	574.8	3.99339E-001	4.40729E-007	0.00000E+000	3.99977E-001	-4.88573E-004	7	...........	1572.51
	2890	578.2	3.99317E-001	4.15440E-007	0.00000E+000	3.99977E-001	-4.60227E-004	7	...........	1572.51
	2907	581.6	3.99343E-001	4.00642E-007	0.00000E+000	3.99977E-001	-4.89323E-004	7	...........	1572.51
	2924	585	3.99343E-001	1.81272E-007	0.00000E+000	3.99977E-001	-5.06664E-004	7	...........	1572.51
	2941	588.4	3.99290E-001	1.65898E-007	0.00000E+000	3.99977E-001	-4.81320E-004	7	...........	1572.51
	2958	591.8	3.99333E-001	1.55242E-007	0.00000E+000	3.99977E-001	-4.97160E-004	7	...........	1572.51
	2975	595.2	3.99305E-001	1.51841E-007	0.00000E+000	3.99977E-001	-4.72983E-004	7	...........	1572.51
	2992	598.6	3.99288E-001	1.41355E-007	0.00000E+000	3.99977E-001	-4.73149E-004	7	...........	1572.51
	3009	602	3.99350E-001	1.33338E-007	0.00000E+000	3.99977E-001	-4.78068E-004	7	...........	1572.51
	3026	605.4	3.99323E-001	3.25083E-007	0.00000E+000	3.99977E-001	-5.10416E-004	7	...........	1572.51
	3043	608.8	3.99332E-001	3.27262E-007	0.00000E+000	3.99977E-001	-4.91824E-004	7	...........	1572.51
	3060	612.2	3.99308E-001	3.20237E-007	0.00000E+000	3.99977E-001	-5.04997E-004	7	...........	1572.51
	3077	615.6	3.99306E-001	3.13940E-007	0.00000E+000	3.99977E-001	-4.86238E-004	7	...........	1572.51
	3094	619	3.99323E-001	3.10164E-007	0.00000E+000	3.99977E-001	-4.68897E-004	7	...........	1572.51
	3111	622.4	3.99333E-001	3.04701E-007	0.00000E+000	3.99977E-001	-4.57726E-004	7	...........	1572.51
	3128	625.8	3.99320E-001	1.15724E-007	0.00000E+000	3.99977E-001	-4.78652E-004	7	...........	1572.51
	3145	629.2	3.99326E-001	1.09708E-007	0.00000E+000	3.99977E-001	-5.09832E-004	7	...........	1572.51
	3162	632.6	3.99321E-001	1.05363E-007	0.00000E+000	3.99977E-001	-4.81236E-004	7	...........	1572.51
	3179	636	3.99320E-001	1.04120E-007	0.00000E+000	3.99977E-001	-5.21254E-004	7	...........	1572.51
	3196	639.4	3.99280E-001	1.00407E-007	0.00000E+000	3.99977E-001	-4.81069E-004	7	...........	1572.51
	3213	642.8	3.99294E-001	9.74665E-008	0.00000E+000	3.99977E-001	-4.79986E-004	7	...........	1572.51
	3230	646.2	3.99298E-001	2.87087E-007	0.00000E+000	3.99977E-001	-4.64896E-004	7	...........	1572.51
	3247	649.6	3.99294E-001	2.86071E-007	0.00000E+000	3.99977E-001	-4.67814E-004	7	...........	1572.51
	3264	653	3.99308E-001	2.82099E-007	0.00000E+000	3.99977E-001	-4.68981E-004	7	...........	1572.51
	3281	656.4	3.99304E-001	2.82467E-007	0.00000E+000	3.99977E-001	-4.72649E-004	7	...........	1572.51
	3298	659.8	3.99333E-001	2.79658E-007	0.00000E+000	3.99977E-001	-4.99577E-004	7	...........	1572.51
	3315	663.2	3.99297E-001	1.25864E-007	0.00000E+000	3.99977E-001	-4.67147E-004	7	...........	1572.51
	3332	666.6	3.99329E-001	9.73789E-008	0.00000E+000	3.99977E-001	-4.78068E-004	7	...........	1572.51
	3349	670	3.99326E-001	9.17207E-008	0.00000E+000	3.99977E-001	-4.98911E-004	7	...........	1572.51
	3366	673.4	3.99328E-001	8.58984E-008	0.00000E+000	3.99977E-001	-4.79235E-004	7	...........	1572.51
	3383	676.8	3.99312E-001	8.53228E-008	0.00000E+000	3.99977E-001	-4.56392E-004	7	...........	1572.51
	3400	680.2	3.99320E-001	8.13708E-008	0.00000E+000	3.99977E-001	-4.58310E-004	7	...........	1572.51
	3417	683.6	3.99324E-001	2.61906E-007	0.00000E+000	3.99977E-001	-4.55558E-004	7	...........	1572.51
	3434	687	3.99330E-001	2.60972E-007	0.00000E+000	3.99977E-001	-4.71649E-004	7	...........	1572.51
	3451	690.4	3.99319E-001	2.59750E-007	0.00000E+000	3.99977E-001	-4.98410E-004	7	...........	1572.51
	3468	693.8	3.99332E-001	2.61705E-007	0.00000E+000	3.99977E-001	-5.09832E-004	7	...........	1572.51
	3485	697.2	3.99307E-001	2.55275E-007	0.00000E+000	3.99977E-001	-5.03746E-004	7	...........	1572.51
	3502	700.6	3.99313E-001	2.57820E-007	0.00000E+000	3.99977E-001	-4.87155E-004	7	...........	1572.51
	3519	704	3.99324E-001	9.37843E-008	0.00000E+000	3.99977E-001	-4.87656E-004	7	...........	1572.51
	3536	707.4	3.99316E-001	8.00574E-008	0.00000E+000	3.99977E-001	-5.19419E-004	7	...........	1572.51
	3553	710.8	3.99322E-001	7.65727E-008	0.00000E+000	3.99977E-001	-4.89156E-004	7	...........	1572.60
	3570	714.2	3.99312E-001	7.48714E-008	0.00000E+000	3.99977E-001	-4.70481E-004	7	...........	1572.51
	3587	717.6	3.99286E-001	6.91562E-008	0.00000E+000	3.99977E-001	-4.92825E-004	7	...........	1572.51
	3604	721	3.99314E-001	6.84449E-008	0.00000E+000	3.99977E-001	-4.87739E-004	7	...........	1572.51
	3621	724.4	3.99293E-001	2.44091E-007	0.00000E+000	3.99977E-001	-5.07331E-004	7	...........	1572.60
	3638	727.8	3.99304E-001	2.42140E-007	0.00000E+000	3.99977E-001	-4.82737E-004	7	...........	1572.51
	3655	731.2	3.99307E-001	2.42559E-007	0.00000E+000	3.99977E-001	-4.85155E-004	7	...........	1572.51
	3672	734.6	3.99289E-001	2.42673E-007	0.00000E+000	3.99977E-001	-4.91657E-004	7	...........	1572.60
	3689	738	3.99302E-001	2.41533E-007	0.00000E+000	3.99977E-001	-4.66396E-004	7	...........	1572.51
	3706	741.4	3.99301E-001	2.37716E-007	0.00000E+000	3.99977E-001	-5.02746E-004	7	...........	1572.51
	3723	744.8	3.99319E-001	7.69252E-008	0.00000E+000	3.99977E-001	-4.59894E-004	7	...........	1572.51
	3740	748.2	3.99315E-001	6.62388E-008	0.00000E+000	3.99977E-001	-4.61144E-004	7	...........	1572.51
	3757	751.6	3.99321E-001	6.24280E-008	0.00000E+000	3.99977E-001	-4.97993E-004	7	...........	1572.51
	3774	755	3.99328E-001	6.28319E-008	0.00000E+000	3.99977E-001	-4.81570E-004	7	...........	1572.51
	3791	758.4	3.99318E-001	6.16131E-008	0.00000E+000	3.99977E-001	-4.79652E-004	7	...........	1572.51
	3808	761.8	3.99328E-001	6.14741E-008	0.00000E+000	3.99977E-001	-5.29090E-004	7	...........	1572.51
	3825	765.2	3.99302E-001	2.30623E-007	0.00000E+000	3.99977E-001	-4.74066E-004	7	...........	1572.51
	3842	768.6	3.99294E-001	2.31806E-007	0.00000E+000	3.99977E-001	-4.93491E-004	7	...........	1572.51
	3859	772	3.99309E-001	2.31081E-007	0.00000E+000	3.99977E-001	-4.96243E-004	7	...........	1572.60
	3876	775.4	3.99295E-001	2.32337E-007	0.00000E+000	3.99977E-001	-5.16251E-004	7	...........	1572.51
	3893	778.8	3.99290E-001	2.26806E-007	0.00000E+000	3.99977E-001	-4.95159E-004	7	...........	1572.51
	3910	782.2	3.99320E-001	2.27015E-007	0.00000E+000	3.99977E-001	-4.71315E-004	7	...........	1572.51
	3927	785.6	3.99331E-001	6.67102E-008	0.00000E+000	3.99977E-001	-5.00911E-004	7	...........	1572.60
	3944	789	3.99291E-001	6.13128E-008	0.00000E+000	3.99977E-001	-4.90407E-004	7	...........	1572.51
	3961	792.4	3.99334E-001	5.87882E-008	0.00000E+000	3.99977E-001	-4.88823E-004	7	...........	1572.51
	3978	795.8	3.99288E-001	5.83933E-008	0.00000E+000	3.99977E-001	-4.95326E-004	7	...........	1572.60
	3995	799.2	3.99293E-001	5.66259E-008	0.00000E+000	3.99977E-001	-4.50556E-004	7	...........	1572.60
	4012	802.6	3.99325E-001	5.75923E-008	0.00000E+000	3.99977E-001	-4.95659E-004	7	...........	1572.51
	4029	806	3.99310E-001	2.24129E-007	0.00000E+000	3.99977E-001	-4.91657E-004	7	...........	1572.60
	4046	809.4	3.99330E-001	2.22972E-007	0.00000E+000	3.99977E-001	-4.87572E-004	7	...........	1572.51
	4063	812.8	3.99331E-001	2.24172E-007	0.00000E+000	3.99977E-001	-4.74900E-004	7	...........	1572.51
	4080	816.2	3.99318E-001	2.23745E-007	0.00000E+000	3.99977E-001	-4.73733E-004	7	...........	1572.60
	4097	819.6	3.99324E-001	2.21870E-007	0.00000E+000	3.99977E-001	-4.77568E-004	7	...........	1572.60
	4114	823	3.99286E-001	2.19963E-007	0.00000E+000	3.99977E-001	-4.73483E-004	7	...........	1572.51
	4131	826.4	3.99339E-001	6.22263E-008	0.00000E+000	3.99977E-001	-5.10165E-004	7	...........	1572.60
	4148	829.8	3.99334E-001	5.70354E-008	0.00000E+000	3.99977E-001	-5.05163E-004	7	...........	1572.51
	4165	833.2	3.99315E-001	5.63394E-008	0.00000E+000	3.99977E-001	-4.70315E-004	7	...........	1572.51
	4182	836.6	3.99337E-001	5.49287E-008	0.00000E+000	3.99977E-001	-4.79902E-004	7	...........	1572.51
	4199	840	3.99310E-001	5.52479E-008	0.00000E+000	3.99977E-001	-4.91574E-004	7	...........	1572.51
	4216	843.4	5.99287E-001	9.56123E-007	0.00000E+000	5.99991E-001	-4.78985E-004	7	...........	1572.51
	4233	846.8	5.99271E-001	1.03890E-006	0.00000E+000	5.99991E-001	-4.79569E-004	7	...........	1572.51
	4250	850.2	5.99244E-001	9.25518E-007	0.00000E+000	5.99991E-001	-4.89073E-004	7	...........	1572.51
	4267	853.6	5.99255E-001	8.51149E-007	0.00000E+000	5.99991E-001	-5.14751E-004	7	...........	1572.60
	4284	857	5.99285E-001	8.07834E-007	0.00000E+000	5.99991E-001	-5.05247E-004	7	...........	1572.60
	4301	860.4	5.99238E-001	7.58961E-007	0.00000E+000	5.99991E-001	-5.03246E-004	7	...........	1572.60
	4318	863.8	5.99277E-001	4.55533E-007	0.00000E+000	5.99991E-001	-4.95659E-004	7	...........	1572.60
	4335	867.2	5.99236E-001	3.90182E-007	0.00000E+000	5.99991E-001	-4.77485E-004	7	...........	1572.60
	4352	870.6	5.99268E-001	3.62306E-007	0.00000E+000	5.99991E-001	-4.97493E-004	7	...........	1572.60
	4369	874	5.99230E-001	3.41065E-007	0.00000E+000	5.99991E-001	-4.70148E-004	7	...........	1572.51
	4386	877.4	5.99268E-001	3.23636E-007	0.00000E+000	5.99991E-001	-4.92491E-004	7	...........	1572.60
	4403	880.8	5.99252E-001	3.09887E-007	0.00000E+000	5.99991E-001	-5.00495E-004	7	...........	1572.51
	4420	884.2	5.99245E-001	6.17902E-007	0.00000E+000	5.99991E-001	-4.77401E-004	7	...........	1572.60
	4437	887.6	5.99238E-001	6.07212E-007	0.00000E+000	5.99991E-001	-4.81153E-004	7	...........	1572.51
	4454	891	5.99255E-001	6.01965E-007	0.00000E+000	5.99991E-001	-4.94158E-004	7	...........	1572.60
	4471	894.4	5.99270E-001	5.91475E-007	0.00000E+000	5.99991E-001	-4.66813E-004	7	...........	1572.51
	4488	897.8	5.99210E-001	5.84441E-007	0.00000E+000	5.99991E-001	-4.75901E-004	7	...........	1572.51
	4505	901.2	5.99258E-001	5.79841E-007	0.00000E+000	5.99991E-001	-5.00995E-004	7	...........	1572.60
	4522	904.6	5.99196E-001	2.92962E-007	0.00000E+000	5.99991E-001	-4.75817E-004	7	...........	1572.60
	4539	908	5.99252E-001	2.65509E-007	0.00000E+000	5.99991E-001	-4.88406E-004	7	...........	1572.51
	4556	911.4	5.99260E-001	2.52586E-007	0.00000E+000	5.99991E-001	-4.78568E-004	7	...........	1572.60
	4573	914.8	5.99230E-001	2.45847E-007	0.00000E+000	5.99991E-001	-5.06664E-004	7	...........	1572.60
	4590	918.2	5.99268E-001	2.40014E-007	0.00000E+000	5.99991E-001	-4.95492E-004	7	...........	1572.51
	4607	921.6	5.99287E-001	2.39503E-007	0.00000E+000	5.99991E-001	-4.83320E-004	7	...........	1572.60
	4624	925	5.99269E-001	5.30986E-007	0.00000E+000	5.99991E-001	-5.02829E-004	7	...........	1572.60
	4641	928.4	5.99260E-001	5.26062E-007	0.00000E+000	5.99991E-001	-5.10749E-004	7	...........	1572.51
	4658	931.8	5.99266E-001	5.24272E-007	0.00000E+000	5.99991E-001	-4.81153E-004	7	...........	1572.60
	4675	935.2	5.99252E-001	5.21499E-007	0.00000E+000	5.99991E-001	-4.78652E-004	7	...........	1572.60
	4692	938.6	5.99261E-001	5.13947E-007	0.00000E+000	5.99991E-001	-4.79485E-004	7	...........	1572.51
	4709	942	5.99248E-001	5.13796E-007	0.00000E+000	5.99991E-001	-4.99327E-004	7	...........	1572.51
	4726	945.4	5.99229E-001	2.34301E-007	0.00000E+000	5.99991E-001	-4.89240E-004	7	...........	1572.60
	4743	948.8	5.99257E-001	2.18029E-007	0.00000E+000	5.99991E-001	-4.77401E-004	7	...........	1572.60
	4760	952.2	5.99258E-001	2.10964E-007	0.00000E+000	5.99991E-001	-4.69148E-004	7	...........	1572.60
	4777	955.6	5.99281E-001	2.06124E-007	0.00000E+000	5.99991E-001	-4.82237E-004	7	...........	1572.60
	4794	959	5.99246E-001	2.02165E-007	0.00000E+000	5.99991E-001	-4.76651E-004	7	...........	1572.51
	4811	962.4	5.99261E-001	2.00205E-007	0.00000E+000	5.99991E-001	-4.99828E-004	7	...........	1572.51
	4828	965.8	5.99258E-001	4.93205E-007	0.00000E+000	5.99991E-001	-4.95492E-004	7	...........	1572.60
	4845	969.2	5.99265E-001	4.84785E-007	0.00000E+000	5.99991E-001	-4.87906E-004	7	...........	1572.51
	4862	972.6	5.99239E-001	4.82009E-007	0.00000E+000	5.99991E-001	-4.88072E-004	7	...........	1572.51
	4879	976	5.99215E-001	4.77148E-007	0.00000E+000	5.99991E-001	-4.54058E-004	7	...........	1572.51
	4896	979.4	5.99258E-001	4.74955E-007	0.00000E+000	5.99991E-001	-5.05163E-004	7	...........	1572.60
	4913	982.8	5.99269E-001	4.75267E-007	0.00000E+000	5.99991E-001	-4.70982E-004	7	...........	1572.60
	4930	986.2	5.99260E-001	2.06540E-007	0.00000E+000	5.99991E-001	-4.90407E-004	7	...........	1572.60
	4947	989.6	5.99273E-001	1.95607E-007	0.00000E+000	5.99991E-001	-4.64979E-004	7	...........	1572.51
	4964	993	5.99259E-001	1.90764E-007	0.00000E+000	5.99991E-001	-4.97660E-004	7	...........	1572.51
	4981	996.4	5.99244E-001	1.86559E-007	0.00000E+000	5.99991E-001	-4.99994E-004	7	...........	1572.51
	4998	999.8	5.99265E-001	1.86124E-007	0.00000E+000	5.99991E-001	-4.95826E-004	7	...........	1572.51
	5015	1003.2	5.99272E-001	1.82039E-007	0.00000E+000	5.99991E-001	-4.72316E-004	7	...........	1572.60
	5032	1006.6	5.99250E-001	4.60499E-007	0.00000E+000	5.99991E-001	-5.20587E-004	7	...........	1572.60
	5049	1010	5.99262E-001	4.62741E-007	0.00000E+000	5.99991E-001	-4.85821E-004	7	...........	1572.51
	5066	1013.4	5.99222E-001	4.58479E-007	0.00000E+000	5.99991E-001	-4.89073E-004	7	...........	1572.51
	5083	1016.8	5.99239E-001	4.57941E-007	0.00000E+000	5.99991E-001	-4.83070E-004	7	...........	1572.60
	5100	1020.2	5.99266E-001	4.47190E-007	0.00000E+000	5.99991E-001	-4.80569E-004	7	...........	1572.60
	5117	1023.6	5.99270E-001	4.50145E-007	0.00000E+000	5.99991E-001	-4.69981E-004	7	...........	1572.51
	5134	1027	5.99245E-001	1.85195E-007	0.00000E+000	5.99991E-001	-5.08081E-004	7	...........	1572.60
	5151	1030.4	5.99258E-001	1.77909E-007	0.00000E+000	5.99991E-001	-5.05163E-004	7	...........	1572.51
	5168	1033.8	5.99274E-001	1.86865E-007	0.00000E+000	5.99991E-001	-4.96409E-004	7	...........	1572.51
	5185	1037.2	5.99270E-001	1.74062E-007	0.00000E+000	5.99991E-001	-5.03329E-004	7	...........	1572.60
	5202	1040.6	5.99266E-001	1.71415E-007	0.00000E+000	5.99991E-001	-4.97410E-004	7	...........	1572.60
	5219	1044	5.99230E-001	1.70427E-007	0.00000E+000	5.99991E-001	-4.92491E-004	7	...........	1572.51
	5236	1047.4	5.99252E-001	4.41536E-007	0.00000E+000	5.99991E-001	-4.75734E-004	7	...........	1572.60
	5253	1050.8	5.99238E-001	4.42195E-007	0.00000E+000	5.99991E-001	-4.99077E-004	7	...........	1572.60
	5270	1054.2	5.99254E-001	4.49286E-007	0.00000E+000	5.99991E-001	-4.94992E-004	7	...........	1572.60
	5287	1057.6	5.99271E-001	4.36303E-007	0.00000E+000	5.99991E-001	-5.04496E-004	7	...........	1572.60
	5304	1061	5.99256E-001	4.34322E-007	0.00000E+000	5.99991E-001	-4.79902E-004	7	...........	1572.60
	5321	1064.4	5.99225E-001	2.06243E-007	0.00000E+000	5.99991E-001	-4.78485E-004	7	...........	1572.51
	5338	1067.8	5.99240E-001	1.74274E-007	0.00000E+000	5.99991E-001	-4.83654E-004	7	...........	1572.51
	5355	1071.2	5.99279E-001	1.67889E-007	0.00000E+000	5.99991E-001	-5.09498E-004	7	...........	1572.60
	5372	1074.6	5.99267E-001	1.64142E-007	0.00000E+000	5.99991E-001	-4.89823E-004	7	...........	1572.60
	5389	1078	5.99249E-001	1.61422E-007	0.00000E+000	5.99991E-001	-4.84237E-004	7	...........	1572.60
	5406	1081.4	5.99254E-001	1.59122E-007	0.00000E+000	5.99991E-001	-4.92658E-004	7	...........	1572.60
	5423	1084.8	5.99258E-001	4.21420E-007	0.00000E+000	5.99991E-001	-4.78735E-004	7	...........	1572.51
	5440	1088.2	5.99269E-001	4.24086E-007	0.00000E+000	5.99991E-001	-4.99327E-004	7	...........	1572.60
	5457	1091.6	5.99266E-001	4.28304E-007	0.00000E+000	5.99991E-001	-4.74316E-004	7	...........	1572.60
	5474	1095	5.99265E-001	4.22220E-007	0.00000E+000	5.99991E-001	-4.84654E-004	7	...........	1572.51
	5491	1098.4	5.99240E-001	4.20211E-007	0.00000E+000	5.99991E-001	-5.06914E-004	7	...........	1572.51
	5508	1101.8	5.99214E-001	4.21437E-007	0.00000E+000	5.99991E-001	-4.61894E-004	7	...........	1572.60
	5525	1105.2	5.99217E-001	1.82762E-007	0.00000E+000	5.99991E-001	-4.74400E-004	7	...........	1572.60
	5542	1108.6	5.99238E-001	1.65178E-007	0.00000E+000	5.99991E-001	-5.10082E-004	7	...........	1572.60
	5559	1112	5.99270E-001	1.58727E-007	0.00000E+000	5.99991E-001	-4.92074E-004	7	...........	1572.60
	5576	1115.4	5.99210E-001	1.55433E-007	0.00000E+000	5.99991E-001	-4.97493E-004	7	...........	1572.60
	5593	1118.8	5.99256E-001	1.52471E-007	0.00000E+000	5.99991E-001	-5.03246E-004	7	...........	1572.60
	5610	1122.2	7.99208E-001	1.87179E-006	0.00000E+000	8.00004E-001	-4.86989E-004	7	...........	1572.60
	5627	1125.6	7.99214E-001	1.91523E-006	0.00000E+000	8.00004E-001	-5.16918E-004	7	...........	1572.60
	5644	1129	7.99210E-001	1.73713E-006	0.00000E+000	8.00004E-001	-4.97827E-004	7	...........	1572.60
	5661	1132.4	7.99213E-001	1.67439E-006	0.00000E+000	8.00004E-001	-4.94909E-004	7	...........	1572.60
	5678	1135.8	7.99225E-001	1.59803E-006	0.00000E+000	8.00004E-001	-4.84321E-004	7	...........	1572.60
	5695	1139.2	7.99212E-001	1.49677E-006	0.00000E+000	8.00004E-001	-4.91741E-004	7	...........	1572.60
	5712	1142.6	7.99182E-001	1.46974E-006	0.00000E+000	8.00004E-001	-4.85155E-004	7	...........	1572.60
	5729	1146	7.99209E-001	9.93301E-007	0.00000E+000	8.00004E-001	-4.92158E-004	7	...........	1572.60
	5746	1149.4	7.99195E-001	9.17301E-007	0.00000E+000	8.00004E-001	-4.89490E-004	7	...........	1572.60
	5763	1152.8	7.99201E-001	8.59745E-007	0.00000E+000	8.00004E-001	-5.08665E-004	7	...........	1572.60
	5780	1156.2	7.99243E-001	8.31651E-007	0.00000E+000	8.00004E-001	-4.98660E-004	7	...........	1572.60
	5797	1159.6	7.99228E-001	8.16400E-007	0.00000E+000	8.00004E-001	-4.74650E-004	7	...........	1572.60
	5814	1163	7.99222E-001	7.87086E-007	0.00000E+000	8.00004E-001	-5.15084E-004	7	...........	1572.60
	5831	1166.4	7.99218E-001	1.25026E-006	0.00000E+000	8.00004E-001	-5.00745E-004	7	...........	1572.60
	5848	1169.8	7.99227E-001	1.24407E-006	0.00000E+000	8.00004E-001	-5.00578E-004	7	...........	1572.60
	5865	1173.2	7.99182E-001	1.22974E-006	0.00000E+000	8.00004E-001	-4.93491E-004	7	...........	1572.60
	5882	1176.6	7.99190E-001	1.22800E-006	0.00000E+000	8.00004E-001	-4.96743E-004	7	...........	1572.60
	5899	1180	7.99237E-001	1.20483E-006	0.00000E+000	8.00004E-001	-4.62228E-004	7	...........	1572.60
	5916	1183.4	7.99230E-001	1.19141E-006	0.00000E+000	8.00004E-001	-4.96993E-004	7	...........	1572.60
	5933	1186.8	7.99212E-001	7.62690E-007	0.00000E+000	8.00004E-001	-5.16001E-004	7	...........	1572.60
	5950	1190.2	7.99167E-001	7.15714E-007	0.00000E+000	8.00004E-001	-4.97243E-004	7	...........	1572.60
	5967	1193.6	7.99229E-001	6.96144E-007	0.00000E+000	8.00004E-001	-4.96993E-004	7	...........	1572.60
	5984	1197	7.99221E-001	6.81762E-007	0.00000E+000	8.00004E-001	-5.21837E-004	7	...........	1572.60
	6001	1200.4	7.99172E-001	6.69967E-007	0.00000E+000	8.00004E-001	-5.12333E-004	7	...........	1572.60
	6018	1203.8	7.99209E-001	6.50745E-007	0.00000E+000	8.00004E-001	-5.26256E-004	7	...........	1572.60
	6035	1207.2	7.99196E-001	1.09785E-006	0.00000E+000	8.00004E-001	-5.05330E-004	7	...........	1572.60
	6052	1210.6	7.99198E-001	1.10120E-006	0.00000E+000	8.00004E-001	-4.96993E-004	7	...........	1572.60
	6069	1214	7.99233E-001	1.09363E-006	0.00000E+000	8.00004E-001	-4.77151E-004	7	...........	1572.60
	6086	1217.4	7.99209E-001	1.08860E-006	0.00000E+000	8.00004E-001	-5.04830E-004	7	...........	1572.60
	6103	1220.8	7.99217E-001	1.10501E-006	0.00000E+000	8.00004E-001	-4.74900E-004	7	...........	1572.60
	6120	1224.2	7.99214E-001	1.08018E-006	0.00000E+000	8.00004E-001	-4.92491E-004	7	...........	1572.60
	6137	1227.6	7.99219E-001	6.57355E-007	0.00000E+000	8.00004E-001	-5.02996E-004	7	...........	1572.60
	6154	1231	7.99180E-001	6.29596E-007	0.00000E+000	8.00004E-001	-5.01078E-004	7	...........	1572.60
	6171	1234.4	7.99206E-001	6.13468E-007	0.00000E+000	8.00004E-001	-4.92491E-004	7	...........	1572.60
	6188	1237.8	7.99204E-001	6.07088E-007	0.00000E+000	8.00004E-001	-5.16251E-004	7	...........	1572.60
	6205	1241.2	7.99195E-001	5.97775E-007	0.00000E+000	8.00004E-001	-4.91407E-004	7	...........	1572.60
	6222	1244.6	7.99183E-001	5.90762E-007	0.00000E+000	8.00004E-001	-5.21670E-004	7	...........	1572.60
	6239	1248	7.99242E-001	1.02472E-006	0.00000E+000	8.00004E-001	-5.33509E-004	7	...........	1572.60
	6256	1251.4	7.99209E-001	1.02778E-006	0.00000E+000	8.00004E-001	-5.01828E-004	7	...........	1572.60
	6273	1254.8	7.99194E-001	1.02630E-006	0.00000E+000	8.00004E-001	-4.79819E-004	7	...........	1572.60
	6290	1258.2	7.99201E-001	1.01289E-006	0.00000E+000	8.00004E-001	-5.09832E-004	7	...........	1572.60
	6307	1261.6	7.99234E-001	1.01841E-006	0.00000E+000	8.00004E-001	-4.89156E-004	7	...........	1572.60
	6324	1265	7.99232E-001	6.71413E-007	0.00000E+000	8.00004E-001	-4.77818E-004	7	...........	1572.60
	6341	1268.4	7.99235E-001	6.01974E-007	0.00000E+000	8.00004E-001	-4.81820E-004	7	...........	1572.60
	6358	1271.8	7.99207E-001	5.76905E-007	0.00000E+000	8.00004E-001	-4.86488E-004	7	...........	1572.60
	6375	1275.2	7.99206E-001	5.68024E-007	0.00000E+000	8.00004E-001	-4.95909E-004	7	...........	1572.60
	6392	1278.6	7.99201E-001	5.61308E-007	0.00000E+000	8.00004E-001	-4.83654E-004	7	...........	1572.51
	6409	1282	7.99233E-001	5.54247E-007	0.00000E+000	8.00004E-001	-4.93241E-004	7	...........	1572.60
	6426	1285.4	7.99184E-001	9.60673E-007	0.00000E+000	8.00004E-001	-4.97493E-004	7	...........	1572.60
	6443	1288.8	7.99225E-001	9.67161E-007	0.00000E+000	8.00004E-001	-5.06164E-004	7	...........	1572.60
	6460	1292.2	7.99218E-001	9.74857E-007	0.00000E+000	8.00004E-001	-4.85821E-004	7	...........	1572.60
	6477	1295.6	7.99223E-001	9.78816E-007	0.00000E+000	8.00004E-001	-4.86405E-004	7	...........	1572.60
	6494	1299	7.99224E-001	9.76934E-007	0.00000E+000	8.00004E-001	-4.89573E-004	7	...........	1572.51
	6511	1302.4	7.99207E-001	9.85545E-007	0.00000E+000	8.00004E-001	-4.97410E-004	7	...........	1572.60
	6528	1305.8	7.99209E-001	5.97610E-007	0.00000E+000	8.00004E-001	-4.99161E-004	7	...........	1572.60
	6545	1309.2	7.99232E-001	5.62986E-007	0.00000E+000	8.00004E-001	-4.90824E-004	7	...........	1572.51
	6562	1312.6	7.99216E-001	5.43685E-007	0.00000E+000	8.00004E-001	-4.87572E-004	7	...........	1572.60
	6579	1316	7.99214E-001	5.35344E-007	0.00000E+000	8.00004E-001	-5.13250E-004	7	...........	1572.60
	6596	1319.4	7.99206E-001	5.28282E-007	0.00000E+000	8.00004E-001	-4.88239E-004	7	...........	1572.60
	6613	1322.8	7.99186E-001	5.21261E-007	0.00000E+000	8.00004E-001	-4.91824E-004	7	...........	1572.60
	6630	1326.2	7.99233E-001	9.21000E-007	0.00000E+000	8.00004E-001	-4.63979E-004	7	...........	1572.60
	6647	1329.6	7.99206E-001	9.23237E-007	0.00000E+000	8.00004E-001	-4.82320E-004	7	...........	1572.60
	6664	1333	7.99195E-001	9.29543E-007	0.00000E+000	8.00004E-001	-5.11166E-004	7	...........	1572.60
	6681	1336.4	7.99223E-001	9.37141E-007	0.00000E+000	8.00004E-001	-4.93491E-004	7	...........	1572.60
	6698	1339.8	7.99212E-001	9.31001E-007	0.00000E+000	8.00004E-001	-5.21170E-004	7	...........	1572.60
	6715	1343.2	7.99207E-001	9.35377E-007	0.00000E+000	8.00004E-001	-4.62811E-004	7	...........	1572.60
	6732	1346.6	7.99204E-001	5.62371E-007	0.00000E+000	8.00004E-001	-4.89156E-004	7	...........	1572.60
	6749	1350	7.99223E-001	5.33739E-007	0.00000E+000	8.00004E-001	-4.97076E-004	7	...........	1572.60
	6766	1353.4	7.99213E-001	5.17860E-007	0.00000E+000	8.00004E-001	-5.26256E-004	7	...........	1572.60
	6783	1356.8	7.99210E-001	5.13453E-007	0.00000E+000	8.00004E-001	-4.92658E-004	7	...........	1572.60
	6800	1360.2	7.99207E-001	5.08315E-007	0.00000E+000	8.00004E-001	-4.90907E-004	7	...........	1572.60
	6817	1363.6	7.99201E-001	5.01039E-007	0.00000E+000	8.00004E-001	-4.97410E-004	7	...........	1572.60
	6834	1367	7.99193E-001	8.93826E-007	0.00000E+000	8.00004E-001	-5.06330E-004	7	...........	1572.60
	6851	1370.4	7.99210E-001	9.01167E-007	0.00000E+000	8.00004E-001	-4.90740E-004	7	...........	1572.60
	6868	1373.8	7.99225E-001	9.05003E-007	0.00000E+000	8.00004E-001	-4.94909E-004	7	...........	1572.60
	6885	1377.2	7.99203E-001	9.12273E-007	0.00000E+000	8.00004E-001	-4.75067E-004	7	...........	1572.60
	6902	1380.6	7.99209E-001	8.99582E-007	0.00000E+000	8.00004E-001	-4.96243E-004	7	...........	1572.60
	6919	1384	7.99217E-001	9.03496E-007	0.00000E+000	8.00004E-001	-4.92574E-004	7	...........	1572.60
	6936	1387.4	7.99235E-001	5.30198E-007	0.00000E+000	8.00004E-001	-4.90490E-004	7	...........	1572.60
	6953	1390.8	7.99228E-001	5.06771E-007	0.00000E+000	8.00004E-001	-4.87656E-004	7	...........	1572.60
	6970	1394.2	7.99219E-001	4.95516E-007	0.00000E+000	8.00004E-001	-4.98827E-004	7	...........	1572.60
	6987	1397.6	7.99170E-001	4.88089E-007	0.00000E+000	8.00004E-001	-4.76818E-004	7	...........	1572.60
	7004	1401	9.99168E-001	3.38480E-006	0.00000E+000	1.00002E+000	-5.10832E-004	7	...........	1572.60
	7021	1404.4	9.99172E-001	2.37022E-006	0.00000E+000	1.00002E+000	-4.91574E-004	7	...........	1572.60
	7038	1407.8	9.99203E-001	2.86478E-006	0.00000E+000	1.00002E+000	-4.87239E-004	7	...........	1572.60
	7055	1411.2	9.99200E-001	2.75439E-006	0.00000E+000	1.00002E+000	-4.66063E-004	7	...........	1572.60
	7072	1414.6	9.99216E-001	2.69736E-006	0.00000E+000	1.00002E+000	-4.93325E-004	7	...........	1572.60
	7089	1418	9.99171E-001	2.64065E-006	0.00000E+000	1.00002E+000	-4.98077E-004	7	...........	1572.60
	7106	1421.4	9.99148E-001	2.70416E-006	0.00000E+000	1.00002E+000	-4.85155E-004	7	...........	1572.60
	7123	1424.8	9.99175E-001	2.56823E-006	0.00000E+000	1.00002E+000	-5.00328E-004	7	...........	1572.60
	7140	1428.2	9.99187E-001	1.84401E-006	0.00000E+000	1.00002E+000	-4.91741E-004	7	...........	1572.60
	7157	1431.6	9.99194E-001	1.74743E-006	0.00000E+000	1.00002E+000	-5.17585E-004	7	...........	1572.60
	7174	1435	9.99158E-001	1.67075E-006	0.00000E+000	1.00002E+000	-4.84237E-004	7	...........	1572.60
	7191	1438.4	9.99133E-001	1.62958E-006	0.00000E+000	1.00002E+000	-5.17835E-004	7	...........	1572.60
	7208	1441.8	9.99192E-001	1.64197E-006	0.00000E+000	1.00002E+000	-4.92991E-004	7	...........	1572.60
	7225	1445.2	9.99199E-001	2.24267E-006	0.00000E+000	1.00002E+000	-4.73483E-004	7	...........	1572.60
	7242	1448.6	9.99173E-001	2.28631E-006	0.00000E+000	1.00002E+000	-5.03913E-004	7	...........	1572.60
	7259	1452	9.99172E-001	2.27913E-006	0.00000E+000	1.00002E+000	-4.89823E-004	7	...........	1572.60
	7276	1455.4	9.99128E-001	2.30625E-006	0.00000E+000	1.00002E+000	-4.88489E-004	7	...........	1572.60
	7293	1458.8	9.99188E-001	2.36730E-006	0.00000E+000	1.00002E+000	-5.25672E-004	7	...........	1572.60
	7310	1462.2	9.99185E-001	2.38219E-006	0.00000E+000	1.00002E+000	-4.90157E-004	7	...........	1572.60
	7327	1465.6	9.99133E-001	1.77345E-006	0.00000E+000	1.00002E+000	-4.81320E-004	7	...........	1572.60
	7344	1469	9.99186E-001	1.59723E-006	0.00000E+000	1.00002E+000	-4.93992E-004	7	...........	1572.60
	7361	1472.4	9.99175E-001	1.53493E-006	0.00000E+000	1.00002E+000	-4.89656E-004	7	...........	1572.60
	7378	1475.8	9.99154E-001	1.48635E-006	0.00000E+000	1.00002E+000	-5.00745E-004	7	...........	1572.60
	7395	1479.2	9.99149E-001	1.45967E-006	0.00000E+000	1.00002E+000	-4.75901E-004	7	...........	1572.60
	7412	1482.6	9.99137E-001	1.43484E-006	0.00000E+000	1.00002E+000	-4.95826E-004	7	...........	1572.60
	7429	1486	9.99170E-001	2.06027E-006	0.00000E+000	1.00002E+000	-4.85988E-004	7	...........	1572.60
	7446	1489.4	9.99192E-001	2.06922E-006	0.00000E+000	1.00002E+000	-4.88406E-004	7	...........	1572.60
	7463	1492.8	9.99189E-001	2.09503E-006	0.00000E+000	1.00002E+000	-5.23088E-004	7	...........	1572.60
	7480	1496.2	9.99170E-001	2.10010E-006	0.00000E+000	1.00002E+000	-5.05663E-004	7	...........	1572.60
	7497	1499.6	9.99160E-001	2.08684E-006	0.00000E+000	1.00002E+000	-5.13417E-004	7	...........	1572.60
	7514	1503	9.99134E-001	2.08995E-006	0.00000E+000	1.00002E+000	-4.98494E-004	7	...........	1572.60
	7531	1506.4	9.99185E-001	1.51200E-006	0.00000E+000	1.00002E+000	-4.90907E-004	7	...........	1572.60
	7548	1509.8	9.99175E-001	1.43116E-006	0.00000E+000	1.00002E+000	-4.94825E-004	7	...........	1572.60
	7565	1513.2	9.99198E-001	1.35595E-006	0.00000E+000	1.00002E+000	-5.03996E-004	7	...........	1572.60
	7582	1516.6	9.99183E-001	1.32164E-006	0.00000E+000	1.00002E+000	-4.94242E-004	7	...........	1572.60
	7599	1520	9.99175E-001	1.14085E-006	0.00000E+000	1.00002E+000	-4.87906E-004	7	...........	1572.60
	7616	1523.4	9.99203E-001	1.12136E-006	0.00000E+000	1.00002E+000	-4.97493E-004	7	...........	1572.60
	7633	1526.8	9.99204E-001	1.72656E-006	0.00000E+000	1.00002E+000	-4.89240E-004	7	...........	1572.60
	7650	1530.2	9.99176E-001	1.75049E-006	0.00000E+000	1.00002E+000	-4.84237E-004	7	...........	1572.60
	7667	1533.6	9.99191E-001	1.77431E-006	0.00000E+000	1.00002E+000	-5.03579E-004	7	...........	1572.60
	7684	1537	9.99169E-001	1.77964E-006	0.00000E+000	1.00002E+000	-5.03579E-004	7	...........	1572.60
	7701	1540.4	9.99184E-001	1.79556E-006	0.00000E+000	1.00002E+000	-5.16668E-004	7	...........	1572.60
	7718	1543.8	9.99151E-001	1.79804E-006	0.00000E+000	1.00002E+000	-4.84654E-004	7	...........	1572.60
	7735	1547.2	9.99166E-001	1.22844E-006	0.00000E+000	1.00002E+000	-4.91157E-004	7	...........	1572.60
	7752	1550.6	9.99205E-001	1.16621E-006	0.00000E+000	1.00002E+000	-4.89573E-004	7	...........	1572.60
	7769	1554	9.99187E-001	1.11477E-006	0.00000E+000	1.00002E+000	-4.97410E-004	7	...........	1572.60
	7786	1557.4	9.99159E-001	1.09531E-006	0.00000E+000	1.00002E+000	-4.84071E-004	7	...........	1572.60
	7803	1560.8	9.99195E-001	1.08218E-006	0.00000E+000	1.00002E+000	-5.31758E-004	7	...........	1572.60
	7820	1564.2	9.99172E-001	1.06688E-006	0.00000E+000	1.00002E+000	-5.07831E-004	7	...........	1572.60
	7837	1567.6	9.99151E-001	1.66309E-006	0.00000E+000	1.00002E+000	-4.97160E-004	7	...........	1572.60
	7854	1571	9.99177E-001	1.68580E-006	0.00000E+000	1.00002E+000	-5.05330E-004	7	...........	1572.60
	7871	1574.4	9.99153E-001	1.76956E-006	0.00000E+000	1.00002E+000	-5.24505E-004	7	...........	1572.60
	7888	1577.8	9.99205E-001	1.72578E-006	0.00000E+000	1.00002E+000	-4.94492E-004	7	...........	1572.60
	7905	1581.2	9.99158E-001	1.72723E-006	0.00000E+000	1.00002E+000	-5.22337E-004	7	...........	1572.60
	7922	1584.6	9.99181E-001	1.73153E-006	0.00000E+000	1.00002E+000	-4.98827E-004	7	...........	1572.60
	7939	1588	9.99152E-001	1.13689E-006	0.00000E+000	1.00002E+000	-4.81403E-004	7	...........	1572.60
	7956	1591.4	9.99195E-001	1.10718E-006	0.00000E+000	1.00002E+000	-4.81236E-004	7	...........	1572.60
	7973	1594.8	9.99186E-001	1.07653E-006	0.00000E+000	1.00002E+000	-4.84154E-004	7	...........	1572.60
	7990	1598.2	9.99164E-001	1.05695E-006	0.00000E+000	1.00002E+000	-4.91491E-004	7	...........	1572.60
	8007	1601.6	9.99181E-001	1.04373E-006	0.00000E+000	1.00002E+000	-4.78318E-004	7	...........	1572.60
	8024	1605	9.99176E-001	1.02759E-006	0.00000E+000	1.00002E+000	-5.10416E-004	7	...........	1572.60
	8041	1608.4	9.99180E-001	1.61420E-006	0.00000E+000	1.00002E+000	-4.93408E-004	7	...........	1572.60
	8058	1611.8	9.99161E-001	1.63435E-006	0.00000E+000	1.00002E+000	-5.13167E-004	7	...........	1572.60
	8075	1615.2	9.99161E-001	1.64968E-006	0.00000E+000	1.00002E+000	-5.11583E-004	7	...........	1572.60
	8092	1618.6	9.99184E-001	1.66055E-006	0.00000E+000	1.00002E+000	-4.80653E-004	7	...........	1572.60
	8109	1622	9.99176E-001	1.66013E-006	0.00000E+000	1.00002E+000	-5.07164E-004	7	...........	1572.60
	8126	1625.4	9.99180E-001	1.66375E-006	0.00000E+000	1.00002E+000	-5.18502E-004	7	...........	1572.60
	8143	1628.8	9.99170E-001	1.09968E-006	0.00000E+000	1.00002E+000	-5.25089E-004	7	...........	1572.60
	8160	1632.2	9.99193E-001	1.05606E-006	0.00000E+000	1.00002E+000	-5.03329E-004	7	...........	1572.60
	8177	1635.6	9.99194E-001	1.03010E-006	0.00000E+000	1.00002E+000	-5.05580E-004	7	...........	1572.60
	8194	1639	9.99175E-001	1.01761E-006	0.00000E+000	1.00002E+000	-4.99661E-004	7	...........	1572.60
	8211	1642.4	9.99164E-001	1.00355E-006	0.00000E+000	1.00002E+000	-5.06581E-004	7	...........	1572.60
	8228	1645.8	9.99173E-001	1.51742E-006	0.00000E+000	1.00002E+000	-5.00745E-004	7	...........	1572.60
	8245	1649.2	9.99177E-001	1.57033E-006	0.00000E+000	1.00002E+000	-4.97827E-004	7	...........	1572.60
	8262	1652.6	9.99180E-001	1.59645E-006	0.00000E+000	1.00002E+000	-5.09415E-004	7	...........	1572.60
	8279	1656	9.99168E-001	1.60527E-006	0.00000E+000	1.00002E+000	-4.76317E-004	7	...........	1572.60
	8296	1659.4	9.99161E-001	1.60758E-006	0.00000E+000	1.00002E+000	-4.96076E-004	7	...........	1572.60
	8313	1662.8	9.99178E-001	1.61073E-006	0.00000E+000	1.00002E+000	-4.68147E-004	7	...........	1572.60
	8330	1666.2	9.99181E-001	1.13726E-006	0.00000E+000	1.00002E+000	-5.21004E-004	7	...........	1572.60
	8347	1669.6	9.99173E-001	1.04866E-006	0.00000E+000	1.00002E+000	-5.15001E-004	7	...........	1572.60
	8364	1673	9.99186E-001	1.00847E-006	0.00000E+000	1.00002E+000	-4.99161E-004	7	...........	1572.60
	8381	1676.4	9.99160E-001	9.82199E-007	0.00000E+000	1.00002E+000	-4.95492E-004	7	...........	1572.60
	8398	1679.8	9.99173E-001	9.67319E-007	0.00000E+000	1.00002E+000	-5.05830E-004	7	...........	1572.60
	8399	1680	9.99134E-001	9.66199E-007	0.00000E+000	1.00002E+000	-5.06247E-004	7	...........	1572.60